ID,sample_idx,ax,ay,az,gx,gy,gz
0,0,40,-244,-16972,58,-38,-45
0,1,112,-304,-16976,61,-42,-57
0,2,28,-208,-16960,81,-14,-55
0,3,156,-264,-16996,156,-79,559
0,4,148,-908,-17000,35,-10,-1062
0,5,180,-2580,-16832,121,2,-431
0,6,892,840,-17020,246,-93,-467
0,7,552,1288,-17132,328,-75,236
0,8,-36,-12,-16600,471,-42,479
0,9,-1400,-2452,-17180,-65,2,-340
0,10,608,392,-16808,92,-76,107
0,11,-476,-552,-17216,189,-184,0
0,12,-116,468,-17596,189,101,698
0,13,32,1596,-16624,35,-86,-360
0,14,536,-3224,-16664,262,-217,-969
0,15,876,2232,-17128,201,-42,374
0,16,-96,-1972,-16560,52,-99,190
0,17,-364,-2244,-16800,39,135,-453
0,18,-140,-196,-17064,21,-60,158
0,19,136,524,-17348,90,24,-462
1,0,132,-316,-16980,49,-55,-22
1,1,32,-560,-16968,90,-71,435
1,2,-136,-540,-16900,148,-107,317
1,3,-812,-3776,-17256,-80,217,-315
1,4,720,-808,-16732,-117,92,566
1,5,384,-344,-17060,68,98,-907
1,6,560,-2408,-16960,362,-285,-1332
1,7,-112,-1744,-17092,408,-349,-525
1,8,524,1980,-17356,0,-148,-525
1,9,888,-280,-16872,75,-142,-761
1,10,976,820,-17044,260,-239,-127
1,11,1112,-172,-17076,-26,239,910
1,12,560,436,-17172,-64,135,-756
1,13,244,-1968,-16304,251,-303,-600
1,14,-88,-168,-16736,-34,-147,-476
1,15,-468,20,-17016,14,73,23
1,16,8,132,-17000,-14,14,181
1,17,1364,1628,-17200,376,-105,-927
1,18,40,-1824,-17196,37,-53,-763
1,19,408,676,-16552,95,-20,120
2,0,128,-376,-16920,71,-10,-12
2,1,-16,-392,-17116,4,29,-277
2,2,-380,-296,-16980,54,-99,-755
2,3,-384,-652,-17112,-38,286,-717
2,4,412,-1152,-16640,41,-172,-1003
2,5,1116,2724,-17084,-88,-42,-193
2,6,-180,-960,-16148,157,-277,-318
2,7,-152,-132,-16384,177,-353,-2116
2,8,368,-632,-16608,400,-228,-1292
2,9,60,-5888,-17936,119,-193,-1536
2,10,488,1952,-16768,51,-69,-1518
2,11,1204,-324,-17584,348,-200,-1064
2,12,-236,916,-16860,191,56,-624
2,13,-660,1680,-16868,-18,-142,-132
2,14,676,-304,-17032,138,-154,-379
2,15,2468,-1128,-15972,402,-119,-680
2,16,-64,-148,-16744,262,-207,90
2,17,-112,-12,-16972,-108,237,234
2,18,-720,-344,-17084,-98,149,533
2,19,-692,-372,-16948,-43,-99,674
3,0,156,-224,-16960,21,-41,-10
3,1,220,-952,-16856,46,-19,552
3,2,-604,84,-17036,40,94,275
3,3,-564,888,-16772,140,77,-237
3,4,256,-1280,-17024,-117,303,-788
3,5,-856,-4736,-16964,13,16,-859
3,6,-20,-1360,-16604,-74,-8,-1314
3,7,648,-1392,-17212,-133,206,80
3,8,1380,1532,-17080,232,25,-1177
3,9,184,2892,-18624,287,146,260
3,10,112,-384,-17244,199,91,-2093
3,11,-932,2100,-17256,-133,-112,-3697
3,12,1728,344,-17636,62,-183,-1404
3,13,792,560,-16724,409,-180,-2216
3,14,-460,1120,-16792,395,-159,-524
3,15,-236,-352,-16788,114,239,719
3,16,724,-908,-17640,-211,251,611
3,17,2276,-1328,-18464,-151,104,-306
3,18,-132,-564,-17304,-165,-176,-420
3,19,924,24,-17052,-12,151,511
4,0,100,-308,-16964,44,-20,-93
4,1,-16,-252,-17008,88,-48,-67
4,2,-52,-96,-17004,69,23,-152
4,3,424,1408,-17300,34,-17,-395
4,4,392,1064,-16700,12,-94,113
4,5,396,1348,-16464,-81,42,-1528
4,6,-864,-664,-17176,33,-70,16
4,7,516,88,-17048,-175,-72,805
4,8,692,-628,-16692,-2,41,191
4,9,-372,-644,-17216,244,-110,548
4,10,-572,-652,-17268,102,-46,549
4,11,-72,2948,-16836,194,-35,-284
4,12,-372,420,-17764,26,-53,379
4,13,1128,-1804,-16768,206,-234,531
4,14,996,244,-16388,-124,63,1631
4,15,-44,3780,-17528,-277,21,1626
4,16,-372,-404,-17336,-261,63,753
4,17,156,-2976,-16896,22,-88,650
4,18,168,2724,-17244,55,-233,-653
4,19,472,48,-17172,-294,257,-152
5,0,140,-256,-17016,73,-26,-169
5,1,-100,-480,-17056,104,-68,-265
5,2,-164,-1496,-16940,170,-8,-889
5,3,-84,-428,-17056,93,-44,-107
5,4,128,-3052,-16656,148,-121,-702
5,5,-172,596,-16956,-81,75,-650
5,6,364,1344,-18360,142,51,-1883
5,7,-816,908,-17568,378,-99,-1525
5,8,-684,-408,-16996,101,-213,-1433
5,9,12,1280,-16664,168,-107,-1794
5,10,-172,1112,-17396,329,-275,-2049
5,11,176,768,-16536,234,2,-1606
5,12,-36,-936,-17088,427,57,-1490
5,13,-1156,348,-17900,215,-126,-1111
5,14,12,-744,-16824,-436,219,-1331
5,15,936,-2168,-17320,239,-129,-285
5,16,-216,-3540,-19348,-432,9,-157
5,17,136,1416,-16056,1063,-30,-406
5,18,28,876,-17084,-211,129,-19
5,19,84,924,-16416,-581,-36,-773
6,0,-72,556,-16956,82,-55,-218
6,1,4,-456,-17048,-252,285,895
6,2,80,-272,-16980,186,-123,-330
6,3,8,-132,-17092,71,-34,-83
6,4,224,-12,-16956,8,6,-232
6,5,36,368,-17012,193,-135,-288
6,6,-84,-584,-17108,109,-129,-188
6,7,280,96,-16948,66,-53,-446
6,8,-200,-1456,-17104,153,-125,-163
6,9,156,-60,-16984,206,-211,-657
6,10,232,192,-17008,85,-39,-518
6,11,188,-476,-17256,63,-34,108
6,12,700,684,-17136,47,-66,-334
6,13,-280,552,-16996,-3,-40,-75
6,14,-224,-512,-16952,108,-148,165
6,15,240,-1224,-17100,8,-36,144
6,16,344,1104,-16900,118,-62,-391
6,17,604,344,-16880,67,-135,-507
6,18,-156,-1340,-17072,-19,-15,-126
6,19,392,-432,-17136,132,-38,-216
7,0,72,-368,-17000,35,-34,-31
7,1,152,-352,-16948,-34,-4,52
7,2,60,-508,-17020,38,-34,1127
7,3,-568,-2076,-16844,78,-215,-5375
7,4,424,-224,-17056,68,-53,-506
7,5,1264,-212,-16668,193,-266,630
7,6,812,1664,-17044,-172,-55,-1163
7,7,-328,-2712,-16808,39,-24,-152
7,8,-588,-492,-17068,149,-114,-415
7,9,444,200,-16972,-94,9,-242
7,10,-180,60,-16992,-14,135,-15
7,11,216,2240,-17048,137,60,-182
7,12,240,-3228,-15936,130,45,390
7,13,304,824,-17208,45,-114,-656
7,14,1832,760,-17240,-278,-41,-1379
7,15,1928,3996,-17572,-184,-173,-1052
7,16,-392,-2856,-16940,99,-40,458
7,17,-396,-3692,-15956,95,5,-376
7,18,-1068,-100,-16420,656,-191,-51
7,19,244,-252,-17216,442,-360,-552
8,0,276,-248,-16972,90,-36,-185
8,1,228,-132,-16968,86,-45,395
8,2,236,-172,-16952,59,7,-128
8,3,224,-188,-16916,76,-57,-149
8,4,16,-484,-16996,93,-8,-61
8,5,184,-396,-16848,34,0,23
8,6,136,-1072,-17020,118,-207,-93
8,7,412,84,-17116,118,-93,-270
8,8,-204,-384,-16804,38,-41,414
8,9,-352,300,-17228,37,35,-155
8,10,-156,-1336,-16660,52,-114,-1611
8,11,112,1552,-17400,78,138,-828
8,12,436,-268,-17072,-198,-22,-943
8,13,36,-2680,-16772,-190,48,181
8,14,420,-440,-17120,163,-12,-748
8,15,152,-604,-17192,28,-194,-262
8,16,-300,644,-16808,264,-95,-764
8,17,268,-184,-17236,83,-93,-57
8,18,724,-2176,-17080,71,-80,84
8,19,600,-2172,-16884,239,-76,201
9,0,-108,-588,-16796,75,-64,-315
9,1,296,-352,-16924,99,-83,-172
9,2,344,-852,-16860,78,-15,-190
9,3,448,-504,-17084,115,-164,-1261
9,4,-248,768,-17016,190,-143,-539
9,5,412,304,-16972,8,15,-967
9,6,240,288,-16876,-13,56,348
9,7,104,-500,-17152,123,75,-459
9,8,268,784,-17048,114,-67,-297
9,9,220,-332,-17064,37,-2,-625
9,10,-1332,-1972,-16652,183,-154,-608
9,11,196,372,-16792,93,-163,-379
9,12,1452,1956,-17112,176,-99,-1211
9,13,1996,1288,-17424,233,-166,-702
9,14,-136,-768,-16924,208,-293,-162
9,15,88,-300,-17076,213,-145,0
9,16,140,528,-17204,136,-133,-639
9,17,2120,-1040,-16800,162,-37,-227
9,18,3152,-360,-16928,83,-54,-1193
9,19,-1028,-24,-16744,45,-22,-403
10,0,-332,-1248,-16912,146,-47,1077
10,1,144,-288,-16940,64,-17,-25
10,2,48,-296,-16948,26,14,1100
10,3,196,-656,-16944,71,-66,-106
10,4,96,-1504,-16760,1,-60,-299
10,5,-592,-2904,-17208,-2,-101,-72
10,6,-228,-900,-17044,158,-146,-715
10,7,-20,972,-16676,163,-188,-767
10,8,512,736,-16788,180,-128,-1000
10,9,-396,1352,-16884,92,-175,249
10,10,-28,-672,-17016,21,-190,28
10,11,-284,-1484,-16896,167,7,-394
10,12,764,-84,-17144,51,-21,-521
10,13,288,764,-17396,56,-10,-365
10,14,132,-1540,-16864,81,-114,-693
10,15,-384,-924,-17448,93,-86,135
10,16,-500,8,-17548,-110,-158,-523
10,17,140,592,-16796,22,-117,-723
10,18,280,64,-16840,-61,-27,3
10,19,640,248,-16704,141,-127,795
11,0,660,-1984,-16888,63,-5,-162
11,1,188,24,-17080,539,-488,-243
11,2,-40,-1316,-17492,71,56,-646
11,3,-48,-120,-17076,151,-95,-908
11,4,148,-60,-16964,149,-138,-432
11,5,20,-1360,-17012,130,-53,-128
11,6,204,-612,-16908,187,43,203
11,7,328,-1868,-16512,52,80,-740
11,8,180,-644,-16840,24,-128,-291
11,9,-296,600,-17120,-84,-34,-790
11,10,-472,-328,-16964,230,-138,-406
11,11,44,-92,-16848,163,-98,-606
11,12,-360,-736,-16808,55,72,-342
11,13,-156,248,-16888,91,-12,-91
11,14,192,540,-16892,-22,-53,-868
11,15,-184,120,-16656,9,-2,-740
11,16,-176,508,-16948,192,-202,-987
11,17,-976,-1420,-16436,132,-198,-237
11,18,268,-56,-16980,155,47,144
11,19,-876,208,-17632,247,-327,-115
12,0,-68,-472,-16944,61,-71,-46
12,1,-552,-1612,-16976,116,-63,-183
12,2,-412,-2108,-17184,-17,-60,-5
12,3,-876,-2576,-17056,-48,71,293
12,4,448,848,-17000,-152,66,-728
12,5,256,1492,-16772,127,-70,-510
12,6,604,200,-16884,190,23,-136
12,7,-376,-880,-17036,212,-279,-252
12,8,384,564,-17316,74,-29,-719
12,9,124,196,-16968,142,91,-1393
12,10,608,1840,-16136,-190,-334,821
12,11,-796,1452,-17044,49,-53,-1151
12,12,484,464,-17096,204,-78,428
12,13,-372,-572,-17036,236,-190,58
12,14,-652,-3300,-16868,-77,167,592
12,15,-240,-1484,-17120,74,16,-864
12,16,-112,-1088,-16920,124,-76,-986
12,17,-544,-524,-16252,-201,-8,-996
12,18,356,-448,-17008,141,-102,-1610
12,19,452,-160,-17264,-119,-189,-583
13,0,64,-1460,-17088,165,-53,313
13,1,88,-1040,-17032,153,19,881
13,2,220,-2500,-16944,69,-48,-363
13,3,-44,-680,-17020,68,-119,207
13,4,-428,-656,-16780,29,-114,1228
13,5,-916,-2164,-17056,30,-41,884
13,6,-924,-1680,-16628,229,-170,38
13,7,408,1256,-17100,234,-76,-748
13,8,-420,-2340,-16660,-124,-16,-1211
13,9,300,996,-16584,88,-112,-208
13,10,-928,-2160,-17476,97,109,-300
13,11,-228,-668,-17104,191,-62,-779
13,12,1396,532,-16948,142,61,-848
13,13,1860,4452,-17196,189,-63,-702
13,14,1220,-1104,-16756,308,-86,-730
13,15,-176,-2128,-16072,427,-116,-1271
13,16,-756,-2452,-16704,-127,-9,-230
13,17,-28,560,-17248,190,-82,-1081
13,18,116,40,-16868,177,-46,-627
13,19,-188,-1456,-16968,40,-76,-455
14,0,40,-312,-17056,44,-67,-67
14,1,84,-396,-17044,94,-39,-50
14,2,-52,-248,-16892,56,-66,-67
14,3,24,-388,-16928,57,-35,-56
14,4,288,52,-16948,129,-116,-1266
14,5,424,1080,-16924,92,0,-441
14,6,-792,-1860,-17000,11,-110,-106
14,7,-96,-76,-17160,89,-102,476
14,8,952,-1284,-16860,4,-24,-216
14,9,788,872,-16220,240,-7,762
14,10,452,440,-16920,210,-93,699
14,11,-304,1756,-16588,212,-95,147
14,12,-248,-316,-17300,-53,59,137
14,13,-56,472,-16476,139,-140,1648
14,14,-292,-3356,-17600,96,-7,1421
14,15,-604,52,-16928,156,-53,1482
14,16,116,-1496,-17156,-67,132,1181
14,17,220,724,-17368,123,75,207
14,18,940,-2560,-16792,35,-19,1004
14,19,-848,-872,-17728,-164,68,1527
15,0,148,-332,-16964,30,-55,-34
15,1,708,752,-17040,1054,-922,446
15,2,-20,-316,-16940,100,-65,-64
15,3,168,-1056,-16904,9,-55,596
15,4,-120,152,-16992,61,-75,406
15,5,312,64,-16988,51,-62,254
15,6,-84,-1052,-17024,91,-68,-284
15,7,-188,-2092,-16632,215,-83,-915
15,8,648,-1104,-17052,65,-162,-1101
15,9,204,344,-16848,68,-6,-658
15,10,156,512,-17156,-2,-56,-471
15,11,352,-368,-17220,101,-143,-415
15,12,324,-1488,-16704,52,-107,-493
15,13,-220,1440,-16644,154,-152,-464
15,14,428,-632,-17324,18,127,-828
15,15,-52,236,-17092,46,-98,-749
15,16,-64,-812,-16884,21,-69,-42
15,17,-172,-1572,-16784,108,-81,-797
15,18,-156,1016,-16996,181,-34,-935
15,19,-92,-404,-16876,258,-185,-1133
16,0,36,-304,-16928,130,-37,-85
16,1,-20,-188,-16920,48,-10,-583
16,2,-208,232,-16908,-24,6,43
16,3,-584,-1736,-16892,149,-8,506
16,4,-724,-160,-17244,-83,-34,389
16,5,-892,-2636,-17280,122,20,850
16,6,-1132,-1168,-16868,75,59,1025
16,7,-428,-1564,-16728,73,-41,892
16,8,-468,-1704,-17152,9,16,335
16,9,-408,-1164,-17464,80,112,1117
16,10,-556,-1328,-17332,296,-92,576
16,11,600,68,-17028,62,-83,1154
16,12,-952,-2968,-16684,33,-62,1634
16,13,-512,-1916,-17264,108,-5,1427
16,14,480,-960,-16684,-269,157,1619
16,15,392,-1560,-16768,-13,-38,672
16,16,-540,488,-16728,67,-63,-313
16,17,-216,740,-17032,48,-180,279
16,18,12,196,-16772,137,-155,846
16,19,-92,-1216,-16984,-154,-31,979
17,0,156,-312,-16984,47,-51,-51
17,1,-60,-428,-16944,90,-93,47
17,2,-340,-448,-17048,3,-56,-71
17,3,-132,-308,-16976,116,-37,31
17,4,896,-188,-16924,113,-52,164
17,5,96,-196,-16880,-44,-38,92
17,6,16,-500,-16956,194,-157,549
17,7,8,-1124,-16480,154,-55,-315
17,8,608,188,-17428,43,21,-127
17,9,-848,-228,-16768,78,-168,542
17,10,1688,52,-17364,-24,-128,-466
17,11,-440,684,-17072,206,-88,296
17,12,500,-1012,-17132,21,186,625
17,13,1728,-628,-17164,46,-12,480
17,14,-896,316,-17032,91,40,791
17,15,196,-348,-16992,-60,90,437
17,16,604,-100,-17236,198,-166,544
17,17,1332,-400,-16996,9,127,-160
17,18,668,-576,-17256,42,-41,-611
17,19,-1760,-740,-16404,59,7,-1853
18,0,76,-380,-17028,72,-48,-37
18,1,28,-376,-16940,103,-71,-9
18,2,500,-404,-17024,92,-93,-78
18,3,84,-248,-17176,53,-50,240
18,4,-860,-396,-16860,175,-55,551
18,5,1508,-832,-16924,0,-29,22
18,6,208,-544,-17040,89,138,220
18,7,-36,-532,-16896,23,13,828
18,8,-1056,-260,-17232,105,5,778
18,9,208,-248,-16804,51,-173,-500
18,10,1084,-608,-16832,78,25,-406
18,11,-376,-144,-17020,103,-54,-140
18,12,1152,-524,-16644,-215,204,-972
18,13,-1192,384,-16756,198,-25,100
18,14,1880,-752,-17652,276,-214,653
18,15,-884,440,-17356,33,-209,-607
18,16,-396,504,-15968,16,-146,1302
18,17,776,20,-17888,236,-265,-49
18,18,-136,-460,-17276,223,-155,-445
18,19,-180,-296,-16912,191,-45,598
19,0,24,-284,-16988,57,-68,-409
19,1,280,-72,-16904,93,-21,-479
19,2,212,544,-16944,-31,-45,-143
19,3,-404,-140,-16896,-43,13,67
19,4,528,252,-17084,117,-126,167
19,5,-224,-220,-17040,40,-190,526
19,6,-348,516,-16988,-86,-29,1303
19,7,-508,952,-16560,226,-98,805
19,8,-260,328,-16464,94,-38,232
19,9,804,268,-15672,212,25,1006
19,10,-24,160,-17052,52,-74,719
19,11,-504,152,-17136,18,-209,773
19,12,-364,-780,-17160,125,-108,1257
19,13,-268,48,-16980,13,-70,1497
19,14,864,-276,-16776,-38,-45,1053
19,15,-268,-488,-17548,350,-396,478
19,16,-88,-480,-16872,-12,-140,926
19,17,920,-360,-16696,116,-51,1027
19,18,-1192,-612,-16808,-119,-152,1058
19,19,-808,-244,-17188,99,-90,1961
20,0,160,-1420,-16776,73,-40,240
20,1,-220,-2436,-16928,33,-81,-557
20,2,80,-60,-16932,35,-136,-659
20,3,-84,1080,-17092,91,-41,-476
20,4,292,164,-17016,270,-231,-839
20,5,292,724,-16872,18,91,-546
20,6,204,-388,-17196,91,61,-661
20,7,584,-844,-16824,78,-57,-328
20,8,-160,-384,-16328,436,-254,-751
20,9,800,888,-17112,142,-130,-661
20,10,80,-32,-17236,175,-90,-502
20,11,-1076,-1488,-17344,218,-195,-111
20,12,-636,8,-17152,213,-148,-1021
20,13,432,492,-16516,99,-236,-1075
20,14,920,-372,-17040,54,-52,-244
20,15,1952,-1668,-18408,-13,142,-252
20,16,852,-1060,-17980,793,-372,805
20,17,500,-372,-17140,-536,184,1148
20,18,228,-188,-17724,-23,-170,-972
20,19,328,-424,-17048,95,-41,-551
21,0,124,-220,-16968,47,-55,-33
21,1,-248,-1564,-16956,93,-64,-162
21,2,668,-1720,-16856,14,-64,-392
21,3,-116,-1200,-16900,-19,0,116
21,4,-156,-1328,-16976,68,-35,-106
21,5,16,-1100,-16740,222,-90,-772
21,6,-292,-1756,-16728,41,-185,-727
21,7,-540,-2416,-16764,-45,75,-876
21,8,-48,-984,-16768,77,222,-289
21,9,152,-2032,-16828,-105,-22,203
21,10,248,1060,-17128,-27,-94,-423
21,11,248,148,-17040,137,104,93
21,12,288,1188,-16948,163,-297,-606
21,13,-140,44,-17084,49,6,-870
21,14,192,-1008,-16808,111,156,-875
21,15,40,1660,-17448,137,49,-1700
21,16,360,-592,-16888,106,-79,-1407
21,17,-52,448,-16928,75,9,-387
21,18,-264,-788,-17072,80,16,193
21,19,-204,364,-17096,45,74,-574
22,0,172,-672,-16988,111,-98,-679
22,1,480,-588,-17124,-5,98,-311
22,2,476,-184,-17416,369,-266,225
22,3,-116,-1148,-17244,-7,-50,-585
22,4,1160,-116,-17772,-533,250,211
22,5,-544,484,-17096,-139,21,-389
22,6,344,152,-17216,56,-57,1425
22,7,-308,44,-17136,-36,-31,1158
22,8,516,-820,-16668,-74,69,-47
22,9,500,1224,-16520,-191,36,299
22,10,-92,-2344,-17768,-85,-62,318
22,11,-188,1576,-15968,183,-281,635
22,12,-384,0,-16772,-337,237,1793
22,13,-676,-188,-17404,53,-176,1243
22,14,-1380,-1160,-17772,400,-35,1480
22,15,764,-1436,-16936,66,24,-337
22,16,1484,-1156,-18476,-181,94,-498
22,17,252,-604,-17076,-278,205,698
22,18,3236,3492,-17712,28,82,-1168
22,19,2660,204,-17504,118,-93,-348
23,0,-68,-360,-17068,64,-19,-64
23,1,16,-288,-16924,64,-76,-68
23,2,28,-272,-16972,123,-72,-100
23,3,-468,1316,-17192,-35,-84,738
23,4,36,952,-17084,30,108,1302
23,5,-352,-700,-17436,135,-24,441
23,6,-184,1696,-17048,70,70,1561
23,7,-188,-740,-16292,144,67,1667
23,8,448,-2200,-17332,53,7,1819
23,9,-92,852,-17372,270,-157,1251
23,10,-548,-284,-16992,23,-89,1037
23,11,-60,1360,-15828,-119,-57,2144
23,12,-80,-376,-16692,196,-214,1398
23,13,-272,52,-17176,380,-110,-595
23,14,-8,-504,-16612,-138,30,-282
23,15,-612,164,-17236,90,-86,-1099
23,16,1156,-1844,-16668,-201,321,968
23,17,468,-1204,-16624,82,-79,2254
23,18,-436,848,-17076,-83,42,765
23,19,-232,1532,-17180,46,-10,1046
24,0,152,-268,-16972,35,-24,-53
24,1,620,-1980,-16980,80,4,302
24,2,700,-2808,-16776,75,-258,-1251
24,3,-120,-3740,-16804,11,-133,656
24,4,-744,-876,-16396,137,217,2505
24,5,-512,-164,-17640,17,-180,-1199
24,6,508,-420,-17220,-124,140,-2029
24,7,588,2024,-17100,239,-79,243
24,8,-932,856,-17532,239,-116,1388
24,9,356,-1292,-17072,120,-209,-2262
24,10,-944,2608,-16912,-25,61,-1481
24,11,692,492,-16624,15,106,56
24,12,40,-1220,-16960,122,-97,286
24,13,228,-1680,-17036,2,-89,-1101
24,14,-188,252,-16888,-55,150,-1321
24,15,-44,1684,-17296,255,-247,-356
24,16,496,-656,-16708,-424,109,419
24,17,-68,-312,-17412,402,-84,-351
24,18,184,-40,-16944,20,30,-147
24,19,332,-116,-17428,106,17,-16
25,0,524,-1400,-16800,-29,35,-651
25,1,-2368,-128,-16744,-62,123,-427
25,2,-772,-928,-17104,95,-103,-1387
25,3,-1120,460,-18072,156,41,-926
25,4,880,-1364,-16916,196,-387,1152
25,5,1548,-676,-17456,-714,1,324
25,6,3440,1492,-18788,-542,528,-808
25,7,3712,2424,-17352,194,-214,-1811
25,8,1468,1820,-16872,-140,-280,-404
25,9,148,-152,-15900,81,-54,-313
25,10,1720,280,-15764,77,-5,-659
25,11,592,-1592,-17140,91,-92,230
25,12,136,1104,-16872,95,-202,217
25,13,-212,1436,-16152,1937,-502,-448
25,14,-80,-4308,-16260,-172,-234,508
25,15,1256,-2904,-16740,-1126,310,430
25,16,432,-1940,-15756,223,119,989
25,17,780,-924,-17124,15,-114,822
25,18,-1212,1380,-17408,-183,78,-375
25,19,808,-604,-16252,156,59,692
26,0,-680,-676,-16712,126,-64,886
26,1,820,-344,-17428,81,-60,137
26,2,-1080,-828,-17180,83,-159,75
26,3,-2460,-1600,-16616,-479,231,-2686
26,4,268,-164,-16412,81,175,-1038
26,5,-288,816,-16884,-813,994,-2240
26,6,-504,940,-16188,-194,228,-120
26,7,-2600,1276,-17508,-33,-109,724
26,8,928,-1308,-17744,-171,298,-1315
26,9,-372,1312,-17388,0,67,-2393
26,10,-1372,3392,-17664,336,-74,847
26,11,-1376,2188,-17028,183,-187,570
26,12,412,112,-16384,895,-460,-1574
26,13,1776,-436,-17196,137,-107,387
26,14,600,296,-17476,172,-497,3591
26,15,1388,904,-16500,224,-145,1694
26,16,904,-964,-17920,-419,241,2188
26,17,1296,-3384,-18908,311,-661,468
26,18,752,1256,-16764,287,-62,1859
26,19,-128,-796,-16656,381,-233,2914
27,0,128,-448,-16864,61,-19,232
27,1,300,-1192,-17100,127,-83,1325
27,2,1176,-1308,-16068,-80,17,1003
27,3,-912,-2012,-16396,-218,106,-1218
27,4,-1312,-288,-16520,175,-274,-979
27,5,436,-1252,-16408,255,20,-2455
27,6,612,2824,-17496,2,123,-671
27,7,-28,-208,-17340,48,106,-387
27,8,-104,-36,-17844,393,-62,-1050
27,9,-444,56,-17284,623,-484,1599
27,10,-776,632,-16888,622,-579,-690
27,11,328,220,-16356,-8,-72,-223
27,12,444,1400,-16384,286,-185,-1163
27,13,-60,-760,-17112,-122,135,-2652
27,14,124,1120,-17088,189,81,-4695
27,15,-1272,704,-17136,54,137,-1452
27,16,1104,292,-17496,81,23,-262
27,17,1004,884,-16996,19,45,-1249
27,18,-732,1664,-16888,-110,87,550
27,19,584,-2220,-17628,61,-64,1184
28,0,-96,-420,-17032,-124,90,144
28,1,880,-1872,-17496,191,-209,1315
28,2,-452,-1216,-16180,-79,209,-947
28,3,-2244,2972,-17548,59,-207,-720
28,4,872,-3224,-16856,-180,198,-593
28,5,1492,2876,-17776,-710,1032,523
28,6,2508,1424,-16704,1193,-957,42
28,7,-1088,-1060,-16428,43,23,-1137
28,8,-1064,-1780,-17052,1027,-913,-1855
28,9,-1220,-16,-16748,-6,120,-382
28,10,1124,1604,-17012,-98,77,-395
28,11,-1076,-1348,-16876,-143,-7,-132
28,12,-1252,184,-17140,139,-95,-880
28,13,-1164,252,-16788,54,55,-1530
28,14,-232,-200,-17224,189,94,-2324
28,15,-1216,-876,-17716,17,-53,-366
28,16,436,-272,-16652,197,-68,774
28,17,-400,-64,-17764,319,-96,614
28,18,-24,268,-15712,99,15,-2211
28,19,672,-548,-17088,97,-41,2172
29,0,152,-280,-16976,28,-75,-637
29,1,-120,-464,-16996,423,-443,-101
29,2,-404,-204,-17296,208,-143,2078
29,3,-96,144,-16676,369,-332,1302
29,4,1416,-1436,-17072,-223,-140,306
29,5,12,-1192,-17728,262,-191,-1273
29,6,-576,176,-16584,239,51,-915
29,7,-256,-72,-17148,-50,130,-103
29,8,-116,48,-17520,72,-176,54
29,9,360,-308,-16284,263,-376,521
29,10,-580,-328,-16912,26,-3,-632
29,11,-620,468,-16884,179,163,1496
29,12,400,484,-17016,274,-117,-357
29,13,-624,1952,-16976,-211,17,437
29,14,268,-336,-17428,-290,122,503
29,15,1284,680,-16912,-185,-8,-1241
29,16,472,-692,-16728,-331,381,862
29,17,-596,-1680,-16680,490,-611,973
29,18,472,-828,-16864,776,-692,-50
29,19,704,272,-16816,882,-838,-415
30,0,-52,-412,-16932,118,-27,-4
30,1,44,-200,-16944,-6,47,592
30,2,136,-568,-17000,120,-84,109
30,3,-348,-316,-16952,80,-40,277
30,4,228,328,-17060,63,100,-346
30,5,496,-1468,-16988,-229,311,-804
30,6,-356,-1732,-16392,678,-609,-180
30,7,-796,-688,-16284,-254,376,156
30,8,540,1732,-16124,23,160,630
30,9,-364,-1008,-17248,243,-248,694
30,10,32,-1420,-17500,68,-44,122
30,11,804,28,-16816,108,-169,-1314
30,12,100,-148,-15812,214,-349,-1973
30,13,12,-256,-17276,194,-266,-902
30,14,1540,-644,-16664,-49,-83,-224
30,15,2336,-1128,-16816,357,-183,-1318
30,16,28,1312,-17400,108,113,-282
30,17,580,268,-16672,-36,-102,-301
30,18,52,432,-17012,40,111,619
30,19,1572,-844,-17052,328,-181,904
31,0,52,-276,-17096,-29,30,-360
31,1,-100,-400,-16972,108,-106,433
31,2,-1440,-760,-16780,4,9,372
31,3,-740,-276,-17064,154,-105,255
31,4,-24,-112,-17100,295,-117,622
31,5,4,-728,-16856,181,-27,757
31,6,676,448,-17872,19,-27,307
31,7,-1256,236,-16804,227,-88,798
31,8,156,640,-16992,-94,-171,-1227
31,9,1124,-848,-17064,304,-195,-41
31,10,1396,-1148,-17664,-372,90,-155
31,11,460,-1060,-16804,-24,-249,-370
31,12,-236,-116,-16748,104,-188,-2609
31,13,2396,248,-16664,331,-245,-837
31,14,980,780,-16564,89,-105,2019
31,15,3868,908,-15176,-109,118,2975
31,16,708,-44,-17044,-465,-95,718
31,17,1240,-1092,-17332,-267,204,1093
31,18,340,2084,-16812,-24,-185,2486
31,19,-1212,-900,-18032,305,-162,1722
32,0,-8,-320,-16928,-304,317,-34
32,1,-28,-1184,-16864,71,10,40
32,2,-80,-120,-17020,305,-286,-415
32,3,-560,-2276,-16940,18,163,-123
32,4,400,216,-17240,80,-13,-827
32,5,584,-148,-17192,-432,523,-1819
32,6,984,-980,-16852,390,-432,-1295
32,7,-300,-3204,-17120,16,18,-1221
32,8,184,-436,-17080,9,-149,-719
32,9,-36,1032,-17456,299,-78,-252
32,10,612,-692,-17124,236,-44,-236
32,11,656,-808,-16644,363,-20,-1800
32,12,2020,-996,-16736,207,-38,-2847
32,13,3360,-984,-16016,63,78,-796
32,14,-76,-680,-17544,-250,101,-74
32,15,-1380,164,-16824,-55,-12,-61
32,16,644,216,-16560,-28,9,2487
32,17,-884,-52,-16972,282,111,104
32,18,2512,-1276,-17020,165,-91,987
32,19,-1924,356,-17376,-30,82,-1040
33,0,76,-400,-17052,91,-50,391
33,1,752,-124,-17228,434,-401,-807
33,2,176,-216,-17220,6,-67,-257
33,3,-112,-468,-16948,85,-180,-312
33,4,-1432,-216,-16704,187,-200,-380
33,5,-160,-852,-16636,-101,-10,-938
33,6,-392,492,-16572,265,-149,-239
33,7,-632,-488,-16936,724,-132,788
33,8,-668,-2176,-18832,2511,-39,-18
33,9,76,260,-16316,-2250,-98,-273
33,10,356,316,-17304,-782,-150,537
33,11,-1420,1172,-18172,34,32,-704
33,12,1288,-1028,-17952,520,-135,2369
33,13,2268,-3016,-16720,167,-120,899
33,14,240,-812,-16660,54,-65,1105
33,15,-620,132,-17028,200,-227,2861
33,16,1332,-780,-17556,-432,526,-3423
33,17,800,1660,-16432,-205,152,-1194
33,18,736,-860,-15912,87,-205,2088
33,19,1224,648,-17064,-211,288,1273
34,0,76,-352,-16968,130,-23,-80
34,1,-448,-804,-16880,23,-27,4
34,2,700,-632,-16588,30,-5,294
34,3,628,-636,-16940,-192,170,1367
34,4,-96,276,-16876,-212,312,1179
34,5,176,-680,-17228,97,-143,-183
34,6,1312,336,-16924,251,-48,-889
34,7,716,192,-16924,12,-17,-161
34,8,1996,184,-16728,205,-265,-2017
34,9,-1908,-380,-17700,121,95,1103
34,10,-452,-440,-16768,136,-235,163
34,11,-1284,-1232,-17232,82,-34,1321
34,12,-1620,40,-17296,-344,305,-276
34,13,-1032,72,-16828,408,-471,1310
34,14,-1184,656,-16108,-135,393,413
34,15,-24,2228,-17292,298,-327,-2532
34,16,504,-184,-16660,40,-217,-559
34,17,1780,-1048,-17576,599,-568,-1623
34,18,-348,-2128,-15924,-282,717,-1691
34,19,-480,-2392,-17124,642,-254,-2365
35,0,-88,-48,-16896,133,-38,-182
35,1,140,384,-17060,116,-55,13
35,2,-132,252,-16660,-385,-67,198
35,3,620,-20,-17304,-239,92,58
35,4,408,1132,-16332,-301,172,258
35,5,-196,-588,-17332,-379,90,-1063
35,6,696,-212,-17320,206,-373,232
35,7,-340,0,-17092,81,-183,-1443
35,8,872,-2072,-16960,-63,319,933
35,9,-52,-536,-16832,140,-143,1094
35,10,-344,-1416,-17680,-166,93,1615
35,11,-540,-84,-17344,170,-305,47
35,12,-196,152,-17616,314,-172,-73
35,13,-468,-424,-17232,-31,-159,-792
35,14,-964,-1084,-16300,-104,-34,-99
35,15,148,-2044,-16580,-470,-27,-245
35,16,-404,-900,-16636,-47,52,-1341
35,17,96,88,-18768,296,-166,1772
35,18,-840,512,-17552,290,-326,295
35,19,616,-200,-17364,52,-268,707
36,0,-196,-840,-16920,253,-197,345
36,1,664,588,-17328,354,-243,-919
36,2,-220,1376,-16916,1056,-877,-1328
36,3,-468,-3708,-16856,-279,500,-2021
36,4,980,2416,-17336,-69,236,-222
36,5,-48,120,-17416,229,-292,-425
36,6,-840,-2336,-16896,30,-223,-481
36,7,176,-112,-17096,101,51,-890
36,8,380,-1360,-16748,380,-256,-816
36,9,8,-224,-17136,33,90,-1649
36,10,552,-796,-16932,227,-102,-1706
36,11,368,896,-17296,182,-90,-1392
36,12,-180,-44,-17356,56,-10,-2219
36,13,-100,508,-16832,121,-45,-2293
36,14,-368,296,-17024,77,-152,-1545
36,15,784,-1564,-16668,54,78,-639
36,16,236,-284,-17316,-45,120,4
36,17,68,1704,-16500,-429,229,-620
36,18,-388,204,-17136,171,7,-792
36,19,-1308,1716,-16960,113,-102,-1243
37,0,48,-296,-16960,210,-128,-87
37,1,-56,672,-16928,148,-85,-363
37,2,-436,740,-16672,38,46,-508
37,3,-536,1388,-16564,115,45,-666
37,4,-1136,1668,-16832,47,-230,-6289
37,5,188,-1684,-17088,47,34,-1329
37,6,332,664,-15676,-100,-61,1731
37,7,160,-244,-17028,-14,-27,1028
37,8,-1344,-1108,-17200,1,21,2673
37,9,-560,1240,-17456,499,-69,2158
37,10,1080,684,-16844,435,-287,3621
37,11,-732,424,-17180,474,-429,3645
37,12,-348,-808,-20016,-218,-67,2984
37,13,-80,1656,-17544,419,-157,2197
37,14,-52,-1400,-16248,798,-550,1771
37,15,20,828,-16788,461,-223,1797
37,16,4,-3312,-17528,-334,56,-846
37,17,256,572,-16976,76,-69,2458
37,18,-4,-720,-17136,-118,-152,-1466
37,19,904,-884,-17512,-55,267,1785
38,0,88,-260,-17028,94,-37,-61
38,1,-904,-296,-16836,86,-60,-1005
38,2,-2292,-80,-16764,101,-119,547
38,3,-216,80,-17480,61,-102,72
38,4,-904,8,-17056,-7,-183,18
38,5,-1380,-608,-16984,-117,-385,-2716
38,6,28,-896,-19204,159,-358,-847
38,7,1680,-1768,-17224,2,58,-8
38,8,268,300,-16572,75,-365,707
38,9,2412,-1104,-18084,63,-255,4173
38,10,4848,-2800,-15868,429,-226,83
38,11,452,-500,-17116,-11,-3,3219
38,12,-428,284,-16968,119,-116,-322
38,13,668,-500,-16968,90,-51,656
38,14,436,252,-16680,47,102,930
38,15,-132,112,-17132,177,-255,-327
38,16,-188,-524,-16968,79,-16,59
38,17,508,-424,-16884,45,-47,267
38,18,272,-904,-17080,-15,112,51
38,19,-372,-40,-17436,41,-48,66
39,0,212,340,-16952,54,-60,168
39,1,-224,-872,-16940,75,-100,741
39,2,344,580,-17004,-219,201,-178
39,3,-20,-556,-16804,87,-119,1598
39,4,932,-496,-17060,16,-29,901
39,5,-472,-1816,-16936,232,-237,1196
39,6,264,-104,-17452,167,-125,-933
39,7,-416,-2424,-17052,-217,161,-1495
39,8,-912,-3632,-16220,362,-154,-2648
39,9,488,3412,-17600,-29,-184,-1086
39,10,220,984,-17068,-183,120,-528
39,11,528,456,-16956,165,-177,-256
39,12,-296,-760,-17020,189,-274,-935
39,13,-212,212,-17612,15,-7,26
39,14,568,268,-16976,14,-60,-171
39,15,848,360,-17012,-18,-221,-1959
39,16,-716,-1308,-17152,7,-157,-241
39,17,768,180,-16844,273,-227,-691
39,18,844,-8,-17484,221,-209,-51
39,19,-1772,-524,-17064,66,-39,-612
40,0,112,-308,-16900,71,-61,-55
40,1,56,-412,-17016,135,-41,-56
40,2,148,-392,-16944,49,-59,-11
40,3,2052,-1148,-16620,66,-115,3
40,4,200,-284,-16784,70,-44,-604
40,5,152,1016,-16600,63,-140,329
40,6,-360,228,-16656,175,11,1003
40,7,-332,-960,-17040,53,-126,-323
40,8,360,-224,-16312,-42,23,-1315
40,9,-192,-524,-17252,528,-538,-1440
40,10,-444,-900,-17376,63,191,-978
40,11,1368,596,-17032,136,10,-138
40,12,-1192,-592,-16912,102,-65,211
40,13,-1724,-1068,-16376,171,-69,-1344
40,14,-204,844,-17380,48,208,1313
40,15,736,1820,-16560,339,2,904
40,16,-616,-1308,-17708,-210,61,1828
40,17,-916,-3044,-18612,954,138,796
40,18,-548,1504,-15940,-1523,-361,2303
40,19,-1592,-6960,-20612,-169,-8,1303
41,0,-184,-308,-16960,106,-86,-191
41,1,-1000,108,-16972,-3,-14,-1317
41,2,-2292,-8,-16796,-237,226,-65
41,3,852,-372,-17060,-1,-107,-153
41,4,-1088,-244,-17044,249,-391,-342
41,5,-1444,-184,-16348,114,32,-2602
41,6,972,-516,-17308,34,0,515
41,7,576,-1216,-16664,-158,38,691
41,8,1208,-236,-17636,193,11,-157
41,9,1864,596,-17164,312,-206,-808
41,10,1960,-452,-17088,187,-279,-779
41,11,-320,28,-16992,360,-302,2302
41,12,608,-288,-16828,161,85,2061
41,13,152,-832,-16580,303,-394,-392
41,14,1800,-108,-16900,11,35,2228
41,15,2284,-236,-17848,-210,203,966
41,16,732,-1356,-17140,54,-266,278
41,17,1464,2876,-17136,376,-457,-1505
41,18,84,-36,-16736,-300,-3,286
41,19,-1376,-2028,-16196,-24,129,-517
42,0,328,300,-16924,85,-39,-109
42,1,120,444,-16992,57,-12,-461
42,2,-524,-672,-16988,-53,100,-1120
42,3,-212,-440,-17612,15,18,-217
42,4,268,512,-16700,218,-12,155
42,5,-44,-760,-16972,189,-138,1089
42,6,112,-964,-17272,-12,-3,-3789
42,7,-96,508,-17156,230,-228,1103
42,8,1448,-44,-16916,-90,165,1674
42,9,-328,672,-16676,846,-607,475
42,10,844,916,-17292,-188,20,1399
42,11,-160,-384,-16864,-89,159,-833
42,12,536,388,-15724,371,-323,-780
42,13,880,-1404,-16864,197,-83,-503
42,14,-576,-968,-17648,113,-118,-1687
42,15,-1656,-468,-17260,-101,-118,-1122
42,16,20,-436,-16516,306,69,569
42,17,16,-1152,-16736,97,208,-796
42,18,2040,-924,-17620,197,-264,372
42,19,-804,-508,-17056,22,-60,979
43,0,92,-944,-16868,42,-4,-546
43,1,-376,-1696,-16880,5,-41,28
43,2,1608,156,-17088,305,-251,-2416
43,3,1600,2176,-16984,210,-143,-280
43,4,1236,-2232,-17768,249,-201,-306
43,5,188,-2828,-16900,-79,147,-1630
43,6,-312,368,-16880,284,-147,-12
43,7,0,-1396,-17224,531,-131,471
43,8,-672,576,-16840,415,-336,-1244
43,9,660,1476,-17744,250,-74,-406
43,10,-96,188,-17444,-6,-306,11
43,11,188,528,-17204,-13,238,-979
43,12,928,1068,-17524,15,174,-104
43,13,208,-756,-16904,-202,24,-1186
43,14,156,88,-16652,-270,-202,45
43,15,88,-268,-17120,17,-67,-157
43,16,84,-772,-16952,-11,-199,93
43,17,1324,148,-16356,39,-107,675
43,18,1244,-832,-17168,-174,131,1262
43,19,-236,-436,-17168,53,-10,-221
44,0,84,-372,-17012,74,-22,-81
44,1,64,-312,-16984,55,-41,-55
44,2,-20,-292,-17008,95,-65,-111
44,3,152,116,-17024,72,-23,-279
44,4,404,-492,-17052,-115,75,555
44,5,-336,800,-16928,260,16,116
44,6,156,296,-17172,-65,-39,-783
44,7,616,304,-16284,-57,121,1500
44,8,-168,-2180,-16500,139,-465,188
44,9,620,-1036,-17292,151,-122,-720
44,10,520,-3668,-18048,-226,69,1125
44,11,1184,1852,-16668,165,175,1525
44,12,416,-1004,-17392,-193,-66,1795
44,13,684,-252,-17504,103,1,-1387
44,14,824,-640,-16488,-117,-147,-30
44,15,-1716,1508,-16992,260,-41,-148
44,16,384,-1952,-16728,168,-313,1789
44,17,-172,-2480,-16768,478,-339,-607
44,18,1288,468,-16104,148,-43,-1283
44,19,-200,16,-16776,160,-76,-424
45,0,8,-204,-17096,-166,172,47
45,1,500,736,-16928,144,-30,-114
45,2,-96,-1252,-17200,241,-135,487
45,3,724,1752,-17072,864,-623,1499
45,4,1264,-2756,-16744,-166,139,1617
45,5,480,1936,-18164,454,-195,2856
45,6,-704,-4216,-16352,189,60,1216
45,7,-380,-832,-15996,-325,150,-251
45,8,-2512,-1864,-13564,207,-307,-1088
45,9,1068,3096,-17380,-211,441,279
45,10,1152,-52,-16928,-493,502,1975
45,11,1084,-1188,-17400,-270,-60,1350
45,12,-72,560,-16988,149,-375,514
45,13,1996,2444,-16608,114,-209,-726
45,14,-188,196,-16208,92,442,-861
45,15,352,-960,-17116,181,-119,-460
45,16,-512,708,-17156,118,-183,-1779
45,17,32,-876,-16932,82,-81,-1611
45,18,736,1124,-16624,44,-62,1440
45,19,284,-1172,-17248,57,26,1300
46,0,88,-268,-16988,52,-58,-70
46,1,8,-340,-17040,93,-65,-21
46,2,56,-316,-17148,92,-53,-48
46,3,52,-296,-17036,100,-80,-45
46,4,-40,-356,-17036,64,-74,-52
46,5,108,-328,-16996,89,-55,-100
46,6,128,-256,-17020,107,-55,-48
46,7,108,-320,-17056,63,-82,-53
46,8,44,-292,-16996,70,-48,-45
46,9,-52,-336,-17056,97,-81,-26
46,10,0,-296,-17040,148,-58,-67
46,11,44,-292,-17032,75,4,22
46,12,516,-564,-17052,142,34,-540
46,13,1208,-3872,-16492,-54,-135,-1393
46,14,-180,1540,-17088,65,-40,751
46,15,332,-492,-16832,-64,-246,-2319
46,16,-216,-1628,-16952,109,14,-147
46,17,-156,4028,-16816,276,-64,691
46,18,-972,5076,-17180,78,-104,-728
46,19,116,-1484,-16916,183,31,-1682
47,0,208,-328,-17036,66,-35,-72
47,1,72,-392,-17056,111,-89,-50
47,2,28,-340,-16928,76,-53,-71
47,3,-16,-288,-16944,77,-37,-51
47,4,40,-360,-17044,95,-57,-76
47,5,-12,-324,-17008,82,-36,-57
47,6,56,-344,-17068,83,-34,-24
47,7,52,-312,-17040,82,-48,-50
47,8,-36,-432,-16968,76,-68,-43
47,9,36,-308,-17016,80,-97,-102
47,10,-524,-476,-17120,967,-68,-998
47,11,108,3428,-16096,703,-24,1188
47,12,-664,4636,-15740,817,-218,479
47,13,-1428,7420,-14120,813,-23,1308
47,14,1904,4140,-14940,-945,49,-359
47,15,-3472,-7788,-17044,-879,153,2659
47,16,3616,4596,-18368,852,-29,1101
47,17,-708,4768,-15376,21,65,310
47,18,-104,884,-16064,-1705,-115,2647
47,19,400,-1016,-18388,-1794,386,853
48,0,60,-384,-16920,52,-57,-17
48,1,28,-296,-16972,59,-37,-69
48,2,32,-240,-16944,52,-41,-34
48,3,100,-300,-16932,66,-35,-29
48,4,24,-432,-17020,116,-79,-26
48,5,96,-220,-16936,65,-80,-43
48,6,24,-396,-17052,107,-60,-24
48,7,100,-220,-16972,98,-76,-27
48,8,16,-372,-17000,98,-3,20
48,9,768,-1216,-16916,49,-100,-134
48,10,-1744,-364,-17384,-14,-48,399
48,11,1832,-1848,-16812,21,-22,-630
48,12,1024,-68,-16824,135,-51,-1014
48,13,-1760,344,-17056,189,-73,-375
48,14,3820,2032,-16992,157,-73,138
48,15,-204,12,-17220,133,52,1041
48,16,588,136,-17036,106,91,1664
48,17,1392,-964,-16336,132,-50,-624
48,18,784,472,-16924,104,-117,-366
48,19,-2332,240,-17228,33,-199,-1443
49,0,16,-356,-17048,119,-98,-32
49,1,136,-292,-17004,116,-74,-82
49,2,164,-356,-17040,80,-73,-72
49,3,8,-332,-16988,78,-73,-56
49,4,80,-300,-17020,60,-85,-15
49,5,36,-368,-16972,59,-27,-79
49,6,32,-300,-17044,82,-42,-78
49,7,72,-360,-17052,75,-47,-59
49,8,48,-264,-17024,48,-50,-31
49,9,16,-264,-17072,87,-41,-34
49,10,112,-352,-17008,80,-56,-7
49,11,-116,-240,-17048,48,21,-415
49,12,-516,48,-17096,12,-22,268
49,13,420,-316,-17008,25,131,-145
49,14,-1440,52,-16592,142,-202,1333
49,15,-356,284,-17020,-67,12,166
49,16,-780,-956,-16884,27,-88,-1455
49,17,-1532,-372,-16820,116,-117,-1405
49,18,2492,304,-17296,108,-247,-1611
49,19,4420,1388,-16808,196,-170,-896
50,0,64,-320,-16964,111,-78,-30
50,1,-460,-784,-17108,82,-28,-93
50,2,256,-420,-16904,71,-29,-3
50,3,-48,-504,-16904,156,-11,253
50,4,-252,256,-17052,-134,-68,-480
50,5,1040,148,-16864,94,-105,83
50,6,-44,-368,-17140,-53,-103,-406
50,7,-2756,-1188,-16908,180,-100,335
50,8,2512,-368,-16788,72,-43,253
50,9,-608,-2192,-17296,0,139,393
50,10,-2484,-1272,-17296,-17,-171,-775
50,11,2284,208,-16944,153,85,-690
50,12,2148,692,-16564,-119,51,994
50,13,2488,312,-17104,150,-121,-250
50,14,68,184,-17140,17,-43,279
50,15,-3184,-1496,-16664,184,-159,-305
50,16,-1036,-708,-17076,135,-38,-225
50,17,152,-300,-16960,23,3,-40
50,18,36,-256,-16988,124,-95,-86
50,19,88,-248,-17064,89,-55,-36
51,0,92,-332,-16960,37,-60,-10
51,1,196,-364,-17020,84,-73,-64
51,2,-84,-372,-16956,-5,-15,-10
51,3,76,-404,-16912,1,-46,-214
51,4,48,-4472,-17096,148,8,-260
51,5,404,-7396,-16208,148,172,108
51,6,1396,-1432,-16732,-252,165,-1643
51,7,-620,-3536,-17348,85,-225,-1654
51,8,1092,2008,-16412,344,-299,-1978
51,9,1364,-2012,-15888,233,242,-1438
51,10,-268,-3480,-17236,-109,-261,-2286
51,11,392,-908,-17020,112,89,-1381
51,12,1072,444,-16816,141,-91,543
51,13,-272,-3176,-17228,-15,-159,-529
51,14,-876,5836,-17176,224,-47,-109
51,15,-84,408,-16976,158,-38,158
51,16,132,-48,-16888,172,-17,187
51,17,148,684,-16980,82,-123,92
51,18,96,-388,-16940,96,-69,-106
51,19,-92,-268,-16932,40,-64,-34
52,0,20,-276,-16972,81,-41,-41
52,1,16,-244,-16964,65,-42,-63
52,2,-764,-684,-16960,35,-35,1290
52,3,-1120,-664,-16896,87,-40,-851
52,4,-1148,-992,-16856,111,-110,-1470
52,5,748,-672,-16932,-18,134,-1168
52,6,-3248,-2460,-16860,133,-327,-140
52,7,2184,212,-16532,82,-225,-770
52,8,4320,2640,-16616,253,-230,56
52,9,-4856,-2940,-17372,-180,267,-2007
52,10,668,-532,-17004,113,-141,-1530
52,11,-228,-1080,-16992,99,10,-966
52,12,52,348,-17200,-93,30,271
52,13,1412,780,-17004,152,-165,-833
52,14,-1328,-816,-17028,102,-195,-275
52,15,772,-176,-16912,104,-48,180
52,16,116,-288,-17000,137,-102,-52
52,17,-4,-388,-17028,30,-66,-28
52,18,100,-300,-17096,65,-38,-51
52,19,180,-448,-16888,90,-69,-35
53,0,20,-416,-16984,71,-40,-64
53,1,84,-296,-17000,47,-48,-65
53,2,484,352,-17144,-150,-27,-1733
53,3,-168,1864,-17012,-133,-39,-219
53,4,-520,-3344,-18136,-302,-207,-898
53,5,-344,5048,-16692,287,-163,1786
53,6,476,2672,-14812,-1066,22,3867
53,7,-1128,476,-16612,-197,101,2763
53,8,1328,-5148,-16772,165,59,2020
53,9,-240,-1820,-17108,-156,-198,2287
53,10,1008,1160,-16700,467,-277,1380
53,11,-748,-2332,-17112,-152,-47,326
53,12,-304,316,-17092,-39,-2,1329
53,13,228,336,-16912,107,-55,-405
53,14,-68,564,-16892,39,-93,-681
53,15,40,-444,-16952,75,-27,78
53,16,192,-632,-16980,15,-43,456
53,17,380,-572,-16884,72,-95,191
53,18,140,-864,-16952,99,-36,-43
53,19,124,-320,-17008,56,-52,-64
54,0,132,-288,-16956,97,-66,-55
54,1,88,-280,-16944,104,-129,-48
54,2,128,-100,-16980,85,23,1428
54,3,1916,-592,-16944,127,-45,-57
54,4,84,-152,-17308,70,119,32
54,5,2868,1964,-15676,317,462,233
54,6,-328,-1376,-16924,2,125,888
54,7,416,-1052,-17016,185,-182,-208
54,8,236,96,-17168,125,-199,788
54,9,3376,908,-15820,121,721,-494
54,10,7020,224,-15192,461,651,1126
54,11,5116,-176,-15064,-117,-2189,-845
54,12,-1172,-944,-17456,281,4826,2772
54,13,-1200,-876,-16856,119,-5,-956
54,14,-468,76,-16772,87,-107,-2020
54,15,-512,-132,-16704,166,29,-1414
54,16,300,-460,-16928,85,-50,-757
54,17,-1376,-452,-17128,135,-4,-677
54,18,696,148,-16752,123,-79,-425
54,19,308,-288,-16928,79,-23,-320
55,0,64,-240,-16976,94,-57,-64
55,1,308,-384,-17000,37,-59,276
55,2,84,-396,-17004,79,-15,738
55,3,-68,-436,-16900,69,22,1334
55,4,-148,0,-16856,40,-131,207
55,5,-1020,932,-16980,-183,42,-922
55,6,-692,1452,-17044,-2,-53,23
55,7,56,248,-17004,257,-143,-1156
55,8,1072,536,-16552,11,-135,-1881
55,9,-336,2828,-17088,-20,-210,-1218
55,10,-476,64,-17564,-87,-311,-1178
55,11,-240,-2120,-16772,-73,13,-902
55,12,-1212,-676,-17196,-61,332,385
55,13,356,404,-16988,196,-255,-620
55,14,448,2156,-17140,42,6,-104
55,15,640,420,-16852,-11,23,-249
55,16,536,820,-17012,110,16,58
55,17,-212,-1232,-16936,30,-81,-76
55,18,-732,-472,-16936,271,-113,-88
55,19,436,-16,-17040,-8,42,-406
56,0,784,-616,-16932,110,-175,-994
56,1,-332,648,-17440,3,-1239,-176
56,2,2144,544,-16420,10,-3162,-926
56,3,-1576,-1680,-18360,58,1769,-275
56,4,4048,292,-15016,21,-796,-379
56,5,-6224,-1504,-20152,97,356,-68
56,6,1848,-1684,-16632,244,646,-248
56,7,-84,1620,-17036,-53,-678,1023
56,8,-104,-472,-17032,86,150,-2151
56,9,2320,1488,-16688,215,-207,306
56,10,280,-20,-16796,52,-12,660
56,11,2736,2908,-16928,99,-128,-858
56,12,460,1876,-16564,148,76,788
56,13,1916,1128,-17136,305,-268,78
56,14,3664,1880,-16572,258,333,-765
56,15,-1464,-3216,-16980,165,-126,827
56,16,-432,-1084,-16892,-10,-155,198
56,17,1284,2628,-15816,-107,-308,1793
56,18,-356,-3992,-16704,58,-305,975
56,19,-872,-2888,-16748,262,37,676
57,0,-140,-100,-17020,28,-42,1287
57,1,352,-356,-16924,111,-86,730
57,2,1220,-12,-17080,117,-34,1215
57,3,1500,-392,-16792,153,-49,148
57,4,-40,216,-17180,-22,-45,-306
57,5,-844,-664,-16992,53,-58,-763
57,6,2028,-32,-16684,107,-17,602
57,7,-2772,-1744,-17280,-10,-50,-1043
57,8,-4272,-3384,-17192,139,210,2351
57,9,792,-1696,-17320,-190,177,-2402
57,10,456,-1944,-17144,-55,85,-1744
57,11,-528,-296,-17528,100,91,-372
57,12,1004,904,-17120,148,-131,1067
57,13,864,832,-16984,82,-69,-422
57,14,28,-256,-16936,73,-93,-100
57,15,668,68,-16984,71,-91,-102
57,16,288,-584,-17096,-36,-223,-1031
57,17,164,-796,-17016,168,-63,-859
57,18,-844,-2652,-16980,76,-188,402
57,19,140,-4360,-16500,22,54,-890
58,0,8,-288,-16952,87,-65,-57
58,1,64,-184,-17032,89,-72,-98
58,2,-20,-268,-16992,93,-56,-476
58,3,-260,604,-16956,54,-49,-529
58,4,-356,984,-17032,156,-53,43
58,5,1572,-668,-15924,-953,-149,-542
58,6,400,-1604,-16648,37,-193,189
58,7,164,-2368,-17524,136,-119,913
58,8,-796,1200,-16484,-63,-36,771
58,9,-80,-600,-16884,110,-48,-259
58,10,76,-292,-16968,116,-65,-53
58,11,752,-28,-16920,93,-48,-463
58,12,-156,-512,-16884,110,-25,327
58,13,-684,-444,-17284,28,-768,-7
58,14,5660,248,-14588,74,-1480,-177
58,15,3576,-1756,-15192,-228,-980,-1220
58,16,2600,-564,-16544,110,-1054,-668
58,17,784,-732,-17676,53,764,-1565
58,18,2056,1572,-16224,59,-88,290
58,19,224,-568,-17516,122,16,137
59,0,-220,588,-17028,49,-60,535
59,1,-12,-1164,-16896,6,-27,-509
59,2,-580,-3040,-16512,-31,49,-2035
59,3,-448,-1256,-17180,229,-162,-1647
59,4,-720,-1532,-16792,124,26,-1782
59,5,312,-372,-16604,421,-344,-1770
59,6,-1300,-1392,-16760,224,-242,-1705
59,7,428,248,-17184,1262,-1133,-1968
59,8,-1516,-188,-18088,-52,-289,-3506
59,9,1208,2616,-16736,-39,441,-1640
59,10,-428,-512,-17620,-53,-175,-1281
59,11,-908,-996,-17704,-48,332,-1625
59,12,-1696,-1168,-17068,105,-171,-2433
59,13,-696,92,-16812,42,-30,-751
59,14,-116,220,-17120,130,-27,-1739
59,15,156,-248,-16708,223,-181,-1505
59,16,-772,560,-16768,99,-39,-225
59,17,1044,-784,-17488,-283,125,105
59,18,-548,500,-17608,69,-111,753
59,19,-908,884,-18104,92,-73,350
60,0,220,664,-16944,394,-403,473
60,1,-520,980,-16888,-132,180,468
60,2,-448,-236,-18036,-112,135,8
60,3,564,1180,-16548,-3,160,-3669
60,4,-172,372,-16400,33,-38,2089
60,5,-660,-1540,-17140,0,85,1011
60,6,-272,-2356,-18212,106,-208,2700
60,7,144,-260,-17364,-83,59,1939
60,8,-1080,-888,-16888,-115,170,1628
60,9,-108,-1088,-16824,68,-113,-564
60,10,1988,-1824,-17128,35,135,-1021
60,11,-1356,-440,-16840,-38,-186,757
60,12,-1740,-788,-16804,248,-162,1430
60,13,-1176,-1596,-16456,18,-41,-225
60,14,1740,-1344,-17060,24,-7,-878
60,15,-1228,-52,-16528,63,-326,-458
60,16,120,256,-16904,504,-474,-821
60,17,1236,2960,-17428,-253,-138,-692
60,18,2640,352,-17380,-121,65,1977
60,19,152,-1576,-16452,52,-443,135
61,0,120,856,-17176,119,-53,-15739
61,1,-16,-2352,-16848,43,-31,-4125
61,2,-1024,-9472,-16144,736,-588,-1407
61,3,-232,1548,-17748,-122,170,-3597
61,4,-212,1148,-17780,-216,-424,-7613
61,5,-2096,-2064,-17284,1325,-1388,-32768
61,6,-3016,-920,-16932,-502,464,-20877
61,7,-3460,-4548,-15860,19,-256,-21704
61,8,-996,556,-16116,442,-230,-15760
61,9,-1240,1048,-17020,2,-312,-11930
61,10,-844,-4052,-18180,23,-320,-13884
61,11,-612,-620,-16772,416,-404,-6383
61,12,436,-116,-17428,409,-396,-3403
61,13,-1572,-3236,-17732,215,-207,-4812
61,14,-1416,-2908,-18056,-656,567,-8689
61,15,-1228,-1568,-18204,383,-261,1282
61,16,516,2148,-16296,235,-143,309
61,17,148,-1308,-17140,-147,92,-2379
61,18,980,2852,-17060,142,-114,2008
61,19,288,360,-17084,139,-26,1644
62,0,24,172,-17060,56,-91,-127
62,1,-48,-32,-17004,-206,277,1238
62,2,384,-772,-17136,213,-155,-311
62,3,28,124,-16828,111,-135,-290
62,4,-932,-1780,-17104,390,-342,-538
62,5,180,4500,-16236,238,-156,1094
62,6,-256,1164,-17472,33,163,6853
62,7,456,-316,-17048,-86,12,6927
62,8,0,2136,-16824,-88,-54,7751
62,9,-1260,504,-17640,2,86,18586
62,10,-1544,2708,-18192,82,-171,10351
62,11,-2084,-320,-17100,251,-67,9545
62,12,-496,76,-17800,346,148,10918
62,13,796,3492,-16696,14,47,12615
62,14,824,800,-17544,-3676,-147,8085
62,15,-4244,-5224,-19144,-1117,-687,9098
62,16,5288,3520,-16972,3734,-98,5141
62,17,856,-2576,-16472,253,-303,7705
62,18,1956,-1780,-17616,-35,52,1142
62,19,-824,-1208,-17964,-100,113,1602
63,0,28,-724,-17020,4,-3,1032
63,1,340,-644,-16880,-17,-11,4751
63,2,668,-1064,-16808,-40,184,8124
63,3,-280,6452,-17960,582,-251,8068
63,4,744,-980,-17220,-448,476,1513
63,5,1144,5764,-17892,57,-83,3190
63,6,1268,4876,-17912,49,170,6075
63,7,3292,6524,-18324,817,-462,10151
63,8,2828,3060,-16476,-471,540,17295
63,9,772,652,-17764,183,-247,11782
63,10,1388,-600,-16068,43,405,16420
63,11,-856,-60,-17756,92,-459,12448
63,12,-768,-5340,-17740,-479,141,9859
63,13,2028,2512,-14164,228,-67,4109
63,14,340,1508,-18288,502,-354,2771
63,15,1232,4820,-16932,-162,-213,3744
63,16,208,640,-17280,-198,141,241
63,17,396,-672,-16580,85,4,5305
63,18,96,-1740,-17004,85,-20,3292
63,19,176,2572,-17048,63,-52,457
64,0,-412,1456,-16848,13,223,555
64,1,256,116,-17328,16,32,-9916
64,2,608,236,-16812,225,-211,2730
64,3,248,-152,-16884,231,-347,3069
64,4,716,-184,-16864,244,-76,-5293
64,5,-1340,-4032,-18312,554,-512,-3359
64,6,-892,72,-17416,-255,-236,1403
64,7,-468,900,-15992,187,-636,-19876
64,8,596,412,-17056,130,116,-20809
64,9,-256,-1980,-16540,271,-214,-9529
64,10,1272,824,-16948,-229,10,-11814
64,11,144,-2580,-17892,-134,-19,-9745
64,12,-1068,-3272,-17040,-114,168,-11004
64,13,292,-376,-17008,133,-114,-13470
64,14,828,2236,-16744,241,-322,-7823
64,15,-104,-2100,-17384,-38,15,-6978
64,16,1000,-496,-16940,-112,57,-5809
64,17,244,-48,-16612,281,-196,-3269
64,18,360,-3788,-16716,-299,300,-3252
64,19,344,392,-16920,-39,-71,-359
65,0,-60,-1244,-16872,122,-80,-988
65,1,240,-336,-17096,69,-47,-4212
65,2,780,-668,-16972,189,-173,841
65,3,1180,-504,-17460,-264,139,-2898
65,4,-296,-940,-16776,-2,-214,-977
65,5,-940,2460,-17740,-78,-145,-4260
65,6,1356,1308,-16572,158,3272,-24314
65,7,-3060,1048,-16080,1143,-1475,-11061
65,8,112,1056,-17228,184,-3055,-5757
65,9,-1148,1972,-15516,251,484,-12893
65,10,-132,-1520,-17160,415,-112,-10711
65,11,-332,1432,-16440,483,-329,-13834
65,12,-372,-2588,-15864,-43,-68,-9067
65,13,-572,-1280,-16872,227,-422,-7894
65,14,-432,2240,-15964,0,202,-3962
65,15,-3460,-536,-18700,-139,26,-3164
65,16,-704,216,-17236,-255,276,-1369
65,17,384,1248,-16948,-107,134,-2634
65,18,84,792,-17396,34,-103,-1056
65,19,168,160,-17288,75,-12,-1527
66,0,88,-344,-16960,39,-54,-164
66,1,144,-176,-16956,54,-62,1021
66,2,228,528,-16984,74,-67,3000
66,3,-28,1704,-16872,105,-62,1379
66,4,1176,-3120,-16120,51,-62,11
66,5,-204,128,-17184,52,-63,-124
66,6,-1760,-1132,-17036,125,-50,2481
66,7,-936,-2044,-17188,-109,-86,5849
66,8,-428,-1068,-17256,-135,-68,2458
66,9,1812,268,-16776,542,-480,3347
66,10,40,-2120,-16344,376,-62,6356
66,11,324,2868,-16696,134,-146,9741
66,12,708,-796,-16788,-94,94,8917
66,13,-1412,840,-17212,-337,29,12939
66,14,-600,88,-17184,94,-95,14306
66,15,-360,-992,-16836,-102,232,9337
66,16,-1296,-3916,-16904,-54,458,2496
66,17,140,-4936,-17432,190,-459,16166
66,18,-556,-156,-17116,169,-4,11831
66,19,432,-1936,-16764,230,-279,7095
67,0,176,256,-16864,49,-61,-1815
67,1,996,-1060,-16796,519,-351,-5646
67,2,820,-2744,-16504,-35,-151,-8305
67,3,-292,-144,-17072,76,-10,-18633
67,4,1564,-1032,-16212,450,-289,-6047
67,5,4104,-360,-17600,-119,-119,-15435
67,6,-4072,-1136,-17336,113,182,-4185
67,7,140,-1256,-15252,-405,253,3272
67,8,-2056,2300,-16964,-109,-377,-11279
67,9,372,-508,-17076,335,-503,-13334
67,10,-1012,-1024,-17388,77,-12,-11143
67,11,-312,-1908,-17804,362,-623,-5432
67,12,340,-2796,-17356,277,-93,-5059
67,13,1480,396,-17468,940,-742,-4818
67,14,1640,-1672,-16920,724,-514,-6652
67,15,-2148,-1160,-16416,-694,251,-5960
67,16,-3216,-368,-17076,251,-244,-2497
67,17,-652,-1860,-17380,37,-48,-267
67,18,-804,-820,-16540,253,-263,-3015
67,19,516,-1880,-17492,-77,-77,-5382
68,0,-128,676,-17076,-10,-52,1568
68,1,-156,-732,-17228,-93,47,-199
68,2,-400,1596,-17036,23,-120,-939
68,3,-88,1144,-16604,197,-138,191
68,4,-440,12,-17312,-195,126,6012
68,5,800,-1620,-17316,144,-81,3809
68,6,352,-2680,-16852,119,-250,8505
68,7,-1076,-2532,-17592,-27,166,10404
68,8,-84,-4972,-17340,-220,72,8572
68,9,-1436,-2024,-16060,-102,157,14046
68,10,-2380,-924,-17044,-158,90,13412
68,11,-44,-2440,-16764,-198,60,10428
68,12,-1304,124,-17276,97,-24,3862
68,13,-1640,-1808,-17460,-36,39,4266
68,14,-192,24,-16608,191,211,5497
68,15,-448,952,-16944,260,72,7933
68,16,-1636,-1968,-16964,246,-76,7071
68,17,-164,-612,-16500,-178,82,2427
68,18,652,-1404,-16764,78,-174,920
68,19,448,740,-17440,-67,3,2615
69,0,116,-708,-16912,127,-52,146
69,1,-276,-928,-16920,108,-100,393
69,2,400,-244,-17068,63,-39,-5
69,3,-244,-960,-17076,-27,229,-251
69,4,-492,-3388,-16480,21,-200,-922
69,5,-48,-92,-17296,123,24,-1124
69,6,48,508,-16644,146,-156,-1341
69,7,-28,-304,-16420,7,132,-991
69,8,272,-224,-16680,118,-153,-1057
69,9,-372,-1276,-16828,-22,225,-732
69,10,-60,996,-17052,108,-15,-600
69,11,236,-280,-16996,163,19,-259
69,12,-56,1040,-16792,17,22,-528
69,13,-160,100,-16964,82,-43,-365
69,14,-76,1888,-17144,56,-102,-1512
69,15,584,556,-17028,89,-72,-363
69,16,-44,-500,-16952,67,-53,-653
69,17,176,-108,-16960,114,-79,-192
69,18,96,-484,-16932,132,-60,-98
69,19,72,-320,-17016,104,-28,-51
70,0,352,-820,-16668,123,-10,487
70,1,-116,-640,-17088,68,-233,405
70,2,-708,-1336,-17308,-74,-3,378
70,3,300,348,-16844,117,-107,1233
70,4,656,-1592,-17080,-214,163,1172
70,5,236,-1940,-16888,165,-107,611
70,6,328,768,-17096,321,-344,969
70,7,-32,56,-16980,11,262,618
70,8,572,-2272,-16580,17,140,1710
70,9,-856,1460,-17456,115,-53,933
70,10,236,2504,-17440,120,-154,1550
70,11,-308,140,-16004,-24,134,1155
70,12,-652,716,-17588,84,-92,969
70,13,496,-1788,-16604,183,-235,360
70,14,-272,-1200,-16672,114,-97,3259
70,15,-496,-2488,-17156,231,-68,1480
70,16,452,-2972,-16932,69,-6,80
70,17,-112,452,-16388,-217,165,663
70,18,376,1140,-16968,225,-135,37
70,19,268,-708,-17036,58,104,750
71,0,388,64,-17000,243,-175,42
71,1,-420,-1344,-17200,82,-72,-328
71,2,180,-2300,-16980,74,-226,-942
71,3,-480,-2600,-17428,175,-82,31
71,4,1008,-1772,-16068,227,-146,-533
71,5,-72,-300,-17312,266,-57,529
71,6,-1176,-400,-16744,36,-285,531
71,7,344,428,-17296,44,-128,336
71,8,552,-1720,-16728,180,-154,307
71,9,468,-880,-16692,-140,77,-701
71,10,-216,1912,-17272,-113,107,-1520
71,11,84,-1484,-16484,295,-175,-1241
71,12,-184,-888,-16336,230,-58,-1234
71,13,152,1512,-16936,206,-199,-275
71,14,588,-136,-17140,281,-36,87
71,15,-4,132,-16900,176,24,-1193
71,16,248,652,-17000,149,-6,-497
71,17,168,488,-16968,212,-63,-260
71,18,-200,716,-17068,-97,-64,235
71,19,-68,948,-16944,127,-20,-408
72,0,-24,68,-17128,112,-151,-132
72,1,-572,1212,-16884,71,-98,-223
72,2,340,-1324,-17140,-130,189,638
72,3,728,-1104,-16920,23,15,4186
72,4,-28,-2844,-16592,37,-92,288
72,5,-364,-1580,-16992,-173,204,1044
72,6,-376,-444,-16988,-52,-292,2215
72,7,1072,1412,-16960,132,0,537
72,8,1296,-192,-16948,-119,121,-215
72,9,452,592,-17496,142,-124,-937
72,10,-208,-636,-16892,199,-271,-1874
72,11,984,-144,-16960,152,-145,-1043
72,12,296,-696,-17040,49,7,-340
72,13,-12,-1284,-16924,74,-11,-455
72,14,604,-1452,-16924,53,-147,806
72,15,120,100,-17312,76,-10,-132
72,16,-84,1340,-17116,43,-46,86
72,17,532,1248,-16804,95,125,618
72,18,208,416,-17136,61,54,660
72,19,284,-360,-16992,135,-179,455
73,0,-140,568,-17072,96,-74,206
73,1,180,-84,-17224,102,-78,-957
73,2,-344,-1704,-17288,12,-26,-1005
73,3,-2304,-2896,-17280,-314,606,22
73,4,-3664,-7672,-17084,279,-112,-943
73,5,-2764,-3680,-17224,682,-794,-334
73,6,-3368,-5104,-17364,-119,641,-154
73,7,-3268,-4124,-16716,-123,94,-2558
73,8,1552,792,-16124,-300,290,-1074
73,9,252,816,-15800,44,-285,-2771
73,10,-2232,120,-16808,80,-138,-793
73,11,1012,-624,-17172,35,-181,-1661
73,12,-1120,508,-17156,21,-429,-6352
73,13,1792,-272,-16524,-153,136,-671
73,14,3076,-1132,-16744,341,-183,1808
73,15,1224,-140,-16488,113,-18,1247
73,16,408,892,-17904,-37,52,567
73,17,1220,368,-18408,-204,44,483
73,18,3392,244,-17564,-220,341,-542
73,19,592,992,-16424,220,-5,810
74,0,-356,-5432,-19048,-737,-23,114
74,1,-708,1272,-17524,-57,2,1487
74,2,-692,1696,-16612,270,-98,1357
74,3,-848,-576,-17140,120,-113,-334
74,4,2152,-2944,-17304,-85,-72,365
74,5,-1380,104,-16996,362,-273,-420
74,6,-1232,-1332,-17284,-2,125,-2525
74,7,-1280,-1172,-16788,133,-85,947
74,8,-136,-1620,-16944,-458,97,1084
74,9,7192,4112,-17580,679,-662,-101
74,10,1336,-900,-17136,-134,-23,-666
74,11,-552,-2612,-17200,-152,404,-2749
74,12,2868,1936,-17852,133,-268,-1244
74,13,2692,-1604,-16592,163,130,-1021
74,14,1316,-588,-16900,341,-127,-2418
74,15,1700,-40,-16384,-91,-12,-1870
74,16,764,644,-17552,-157,-67,29
74,17,576,1976,-17500,-344,-103,-378
74,18,-224,1120,-17716,420,-346,10
74,19,-4028,-4076,-15760,909,-13,2836
75,0,-436,-860,-16856,111,-176,-723
75,1,908,-3160,-16788,144,-334,-1063
75,2,212,-512,-17712,122,-76,-1583
75,3,720,-1748,-17072,632,-570,-2893
75,4,1184,1580,-17244,886,-882,-952
75,5,-748,-4928,-16688,263,-16,749
75,6,-5228,-2864,-17080,-76,-317,-3529
75,7,2884,3868,-17356,-98,286,-1832
75,8,-2124,-376,-17408,262,187,-4462
75,9,-1128,1908,-18152,139,-33,536
75,10,328,2104,-16920,343,-512,1803
75,11,2072,-876,-15928,-39,-72,1430
75,12,3384,332,-15908,619,-90,2915
75,13,1912,-1232,-17816,-390,225,2996
75,14,1212,-1300,-16172,176,10,1134
75,15,3476,-812,-14604,-10,-29,-1405
75,16,420,-1824,-17956,5,-255,-9
75,17,1768,-2496,-18688,7,-114,-304
75,18,-1456,-3456,-17428,-29,-70,-803
75,19,-712,-2524,-16616,-178,127,-408
76,0,-548,-564,-17624,113,-62,247
76,1,-1296,-680,-18008,1537,18,1235
76,2,16,-9512,-19692,155,-233,1689
76,3,-636,6244,-14308,751,183,1812
76,4,-800,980,-16100,573,-55,1427
76,5,-532,-1340,-18172,20,66,1483
76,6,-2240,1572,-16812,390,-230,2256
76,7,-396,-1816,-17060,9,-153,-2413
76,8,-780,-1412,-16796,178,-60,913
76,9,-2376,-1504,-16428,138,194,2447
76,10,-2984,-3068,-16564,-160,137,561
76,11,2668,-2508,-16656,-79,-165,-562
76,12,3680,2092,-19116,158,-458,-1962
76,13,1128,140,-17236,-81,-83,-1211
76,14,2648,1304,-16792,-420,46,-1320
76,15,2148,-2264,-18172,14,121,-3593
76,16,3004,152,-15456,-280,20,-3015
76,17,-1592,2848,-17280,-63,-138,98
76,18,-2672,1592,-15864,-164,-252,-887
76,19,-1040,836,-16820,381,-19,2586
77,0,288,-168,-16960,89,-90,-165
77,1,-168,-380,-16988,44,-8,198
77,2,-192,-260,-17068,176,-122,502
77,3,-1464,-356,-16948,243,-140,-1114
77,4,708,24,-16952,227,-152,-1066
77,5,-308,-668,-17408,101,-285,920
77,6,-932,-452,-17104,168,73,341
77,7,2204,624,-17324,234,-69,1664
77,8,1148,400,-16908,412,-350,2299
77,9,3100,1168,-16996,493,-210,511
77,10,-1724,-476,-16676,476,-69,-527
77,11,1692,1672,-17180,-31,-207,-1610
77,12,1824,476,-17184,398,-555,-445
77,13,692,1144,-16636,125,-17,-685
77,14,-148,988,-16816,83,5,1527
77,15,-76,1008,-17112,3,90,-107
77,16,-164,-2128,-17220,-35,0,2792
77,17,-144,844,-17152,27,-33,2335
77,18,1128,692,-16848,128,-225,2216
77,19,168,-620,-17528,717,-639,2434
78,0,36,-1588,-17100,-84,90,1130
78,1,-44,-2776,-17052,49,9,-142
78,2,2004,-7672,-15212,85,-43,-2239
78,3,1516,2028,-16852,-184,-241,-3442
78,4,-228,-3636,-16936,-50,327,-2582
78,5,404,1356,-16828,127,-273,-2001
78,6,-1588,700,-17632,-102,-81,-2317
78,7,2280,2584,-17404,32,106,-1419
78,8,2200,-1316,-16592,16,-243,-1355
78,9,1320,1192,-17592,175,59,-180
78,10,-1828,-372,-16828,-80,-333,875
78,11,912,-348,-17616,101,-199,2688
78,12,-780,-1592,-18816,66,-252,558
78,13,-252,-944,-16556,-108,-150,865
78,14,-832,-732,-17240,-12,-46,947
78,15,-120,-1516,-17248,1,118,871
78,16,-3232,-980,-16836,190,-85,-960
78,17,-836,-500,-17184,-44,-4,-422
78,18,-260,-288,-16920,158,-142,-866
78,19,600,764,-17016,186,-79,-871
79,0,360,1096,-16952,10,-29,-420
79,1,-740,312,-17200,-17,-271,-450
79,2,-1276,-1592,-17744,186,41,66
79,3,744,-2380,-17212,64,1,469
79,4,-856,-1324,-17100,207,-150,1464
79,5,-696,524,-17560,-48,0,-466
79,6,-1028,-1692,-17320,89,-83,783
79,7,-2552,-1284,-16464,-266,-238,-90
79,8,-972,-1032,-17328,16,-111,-1144
79,9,164,-1124,-16900,24,-261,-441
79,10,-1300,-180,-17696,85,-57,1280
79,11,4148,372,-17180,116,-114,-1575
79,12,936,580,-16732,153,-140,407
79,13,-2376,2376,-16752,92,30,-38
79,14,-544,1052,-16572,-198,-400,2008
79,15,420,-476,-16380,-152,11,1647
79,16,852,-1100,-17132,375,-312,1144
79,17,304,-1672,-16872,45,-114,1887
79,18,64,468,-17228,43,45,1100
79,19,-36,2208,-16624,240,-86,393
80,0,-28,-268,-16732,73,-81,-919
80,1,136,-284,-16928,97,-47,-71
80,2,1884,-556,-17304,-38,150,-1845
80,3,1048,-624,-17172,286,153,-1285
80,4,-1632,56,-16028,402,-273,-166
80,5,5740,984,-17136,102,-283,-690
80,6,2664,-1108,-18088,376,-719,3792
80,7,232,-304,-17664,-31,-38,-1320
80,8,-1080,-1396,-16596,-36,82,-660
80,9,-2728,-824,-17376,-33,87,1499
80,10,32,-3436,-15752,-430,834,-383
80,11,620,-124,-16332,347,-443,54
80,12,156,-2648,-16488,120,-508,-559
80,13,-736,748,-17220,26,92,-2843
80,14,-3476,1264,-16488,-107,-53,-2692
80,15,1056,-1344,-15872,-258,63,1127
80,16,-316,-388,-17872,104,109,1174
80,17,696,272,-16376,-26,-188,221
80,18,128,-440,-18612,65,-29,-2723
80,19,2084,-1140,-17088,60,34,1068
81,0,84,-896,-17252,123,-41,1620
81,1,-52,-1332,-17040,-53,66,-1354
81,2,384,-724,-16828,97,10,-43
81,3,-2972,-2248,-16892,120,47,1313
81,4,-1376,-1192,-17028,35,11,793
81,5,440,-504,-16940,73,-17,367
81,6,-216,-436,-16772,82,62,163
81,7,-40,12,-17016,207,-41,-157
81,8,2120,-1068,-17024,65,-126,-297
81,9,-1028,204,-16080,137,-85,-822
81,10,-632,692,-16820,-69,-62,-509
81,11,-604,1240,-16896,-32,-92,-385
81,12,-832,-152,-17172,53,175,2106
81,13,256,1448,-16712,86,-528,1290
81,14,960,-1384,-16692,272,-197,1451
81,15,-572,-1672,-17064,-50,189,-1680
81,16,-1384,-1648,-16960,24,-36,770
81,17,-2708,-588,-17240,74,-85,815
81,18,624,600,-16796,14,22,-751
81,19,-524,-84,-17636,-518,599,1532
82,0,144,-252,-16948,90,-52,-60
82,1,100,-300,-16976,28,-32,-36
82,2,-1200,1096,-16976,550,-578,-1960
82,3,-188,2020,-17112,100,-124,-1238
82,4,504,1580,-16804,154,-57,1460
82,5,860,-216,-17612,120,-55,522
82,6,276,436,-17344,-41,74,-1371
82,7,60,-5572,-18476,-35,71,2133
82,8,2776,-2160,-16732,64,35,-2966
82,9,2232,-444,-17344,27,-133,604
82,10,-436,956,-16592,99,52,-229
82,11,-124,-668,-17520,82,-89,-100
82,12,-2060,444,-18112,-29,-176,1007
82,13,-1112,-372,-17584,143,108,336
82,14,356,776,-16932,596,-564,-531
82,15,-612,-84,-17624,-8,58,-1964
82,16,-1176,1156,-17472,-124,-102,746
82,17,-128,-100,-17176,277,-154,1004
82,18,756,-224,-16936,109,-19,-2286
82,19,-688,-2364,-16880,237,85,-758
83,0,-72,-40,-16848,11,20,-121
83,1,12,168,-16880,66,7,-180
83,2,148,-408,-17020,220,-168,-205
83,3,276,-756,-16884,-17,5,-27
83,4,-52,-2368,-16792,156,-134,-165
83,5,-936,-1308,-16440,106,-123,-223
83,6,-116,-1108,-16804,28,-84,203
83,7,120,76,-16820,110,-74,431
83,8,912,1016,-17404,1,91,-1158
83,9,-908,-220,-17012,147,-43,-728
83,10,-324,-644,-17072,127,-128,589
83,11,-1296,428,-17548,110,-85,-266
83,12,776,-784,-17328,99,-170,480
83,13,-1256,-1228,-16828,-263,265,-16
83,14,12,-124,-16920,542,-595,-242
83,15,624,904,-17040,107,-115,-990
83,16,708,652,-17112,87,-196,1174
83,17,-944,64,-16928,241,-116,1723
83,18,-232,248,-17372,28,-79,1588
83,19,264,0,-16780,272,-246,-279
84,0,32,-376,-17000,-64,-66,-31
84,1,-392,-908,-16864,23,44,502
84,2,88,-1496,-16936,2,-68,-207
84,3,408,-364,-17164,-34,156,-156
84,4,772,-592,-17060,78,39,-160
84,5,440,-48,-17276,133,-101,-694
84,6,-20,380,-16412,-67,-31,-119
84,7,4,-452,-16760,12,-99,462
84,8,212,676,-17784,71,182,-592
84,9,232,-552,-16668,411,-219,-919
84,10,484,-724,-16792,234,-67,-860
84,11,240,-548,-16560,103,-76,-522
84,12,40,12,-17424,281,-14,-777
84,13,-736,236,-17048,192,90,442
84,14,-896,228,-17384,347,-147,1208
84,15,524,-908,-16868,185,-30,892
84,16,-112,-336,-16912,78,-20,-54
84,17,292,-396,-16852,69,-163,1004
84,18,688,-600,-17020,-3,-106,1278
84,19,1608,128,-16916,147,-31,201
85,0,-72,-1996,-17432,82,-149,615
85,1,284,-2240,-16472,221,39,-679
85,2,-180,944,-17904,42,-127,-2231
85,3,-400,336,-16748,79,188,-2266
85,4,-404,812,-17436,188,-33,-1198
85,5,-1680,900,-17540,234,93,-1502
85,6,-1688,1076,-17100,236,-78,-226
85,7,88,-504,-16720,-228,71,1239
85,8,488,88,-18108,19,-451,1072
85,9,996,784,-16912,152,57,171
85,10,2028,3156,-17124,238,4,-862
85,11,-572,1580,-17280,269,-134,1442
85,12,-912,-508,-17360,388,-138,3212
85,13,2452,-2372,-16680,-20,-111,1342
85,14,4336,-1808,-17392,-280,52,-907
85,15,1708,-444,-17292,402,-181,181
85,16,-16,-1464,-17912,196,-275,806
85,17,-3084,-2752,-16540,-4,280,2301
85,18,-900,-3020,-16520,164,-313,925
85,19,-4096,-104,-17472,339,-387,-704
86,0,4,-1396,-16836,21,35,215
86,1,-688,-2128,-16944,42,-78,-1468
86,2,-1652,-1156,-17792,326,-188,-3330
86,3,-3348,1180,-16188,216,-258,-2992
86,4,152,2384,-17624,356,-327,-766
86,5,928,3904,-18364,232,-254,1364
86,6,4136,2172,-16636,-263,537,3508
86,7,5768,32,-16804,-534,303,-1281
86,8,3604,-3436,-16352,405,174,2519
86,9,1900,-5344,-16484,130,-429,-1149
86,10,-4856,-2948,-17364,-304,-403,-985
86,11,-3272,-2752,-17020,-313,163,-2741
86,12,-5312,1328,-15968,203,-308,-4796
86,13,4096,2576,-16772,-273,320,1689
86,14,1816,5264,-16996,234,-321,-1792
86,15,1080,2316,-18420,73,327,-1121
86,16,-2252,1424,-18296,-233,-387,-1080
86,17,-4476,-1280,-17564,145,-271,3206
86,18,-3476,-3784,-16884,33,-230,5634
86,19,-4116,-3552,-16664,163,41,7290
87,0,-3960,-1060,-17060,246,-279,335
87,1,-2476,-892,-16556,383,-213,939
87,2,-1120,336,-17252,360,658,1356
87,3,5260,48,-17228,45,-479,1326
87,4,2944,2080,-16864,215,-233,-4005
87,5,252,2044,-17004,178,-147,2515
87,6,1928,-2804,-16540,-37,80,5463
87,7,328,-6320,-17092,185,-82,412
87,8,-132,-5260,-16740,-128,258,-573
87,9,-776,-2020,-16888,116,-422,-3463
87,10,-100,1468,-17304,29,-331,-1530
87,11,-324,1008,-16652,250,60,-2421
87,12,360,1000,-16788,187,20,-1971
87,13,548,1996,-17508,-63,6,-827
87,14,2288,-628,-17424,177,-126,-1556
87,15,2832,-1336,-17768,187,9,-3598
87,16,496,256,-17120,54,-292,-742
87,17,-1936,4,-17548,63,-217,-67
87,18,-1692,-80,-16872,256,158,1094
87,19,-1388,-1104,-16948,6,-21,1383
88,0,-252,224,-17332,103,-18,113
88,1,-724,1360,-16900,-233,-230,1252
88,2,-112,1212,-15892,172,-66,-386
88,3,-80,-2764,-17168,56,198,2465
88,4,0,-980,-17040,-189,147,388
88,5,-3860,76,-17384,262,-55,-2819
88,6,-2992,2368,-16408,243,30,3043
88,7,3512,-3420,-16112,44,282,2392
88,8,2920,-2936,-16960,-150,32,-2394
88,9,112,-1392,-17304,-138,-230,-2362
88,10,-864,2284,-16460,129,-183,1973
88,11,456,3480,-17180,175,-98,-770
88,12,2700,-536,-17148,362,-362,2418
88,13,-60,172,-17708,272,-393,-1904
88,14,-436,-548,-16936,89,570,-957
88,15,-1248,4592,-17152,53,237,2309
88,16,-4,1548,-17204,245,-519,-162
88,17,616,-1508,-16588,309,21,1203
88,18,-804,-3712,-17112,-86,146,1565
88,19,-544,-6624,-17032,66,15,-1044
89,0,-260,-1696,-17148,212,2,529
89,1,3676,-6748,-17080,-217,73,5011
89,2,-2896,-1456,-17120,948,-322,-3253
89,3,-5048,1284,-16632,473,139,-4197
89,4,-2096,2184,-17776,156,-192,-2877
89,5,932,2676,-17464,398,248,-2410
89,6,1852,3104,-17208,50,-149,1612
89,7,7488,-944,-15496,35,-112,3969
89,8,3104,-1428,-17480,307,37,901
89,9,-768,-1988,-16008,-48,-117,-731
89,10,-2100,-3020,-17276,151,43,-2008
89,11,-5204,1648,-17576,27,-197,1346
89,12,-1472,-372,-16984,182,259,3822
89,13,796,-3692,-17128,-171,-4,572
89,14,1292,-2616,-17188,61,-139,-3862
89,15,-768,1148,-16896,197,-299,-4589
89,16,-328,4020,-16412,137,6,-1497
89,17,136,6944,-17068,376,-186,-3154
89,18,-844,2344,-17836,83,195,5120
89,19,32,-1584,-17112,162,-332,3359
90,0,120,-188,-16984,208,-142,-105
90,1,12,24,-16964,154,-64,-585
90,2,-512,-900,-16856,48,-72,-1665
90,3,956,-3224,-17088,-80,-15,8354
90,4,884,-1732,-17068,33,-8,403
90,5,-616,-408,-17552,206,-41,135
90,6,-976,1800,-17244,-221,-153,-3129
90,7,1060,2672,-16580,-38,-233,-2728
90,8,108,2452,-16940,198,-25,-1041
90,9,4,136,-17052,286,-221,-12835
90,10,356,-40,-17412,236,-155,-20571
90,11,1868,-1428,-16932,59,-346,-32768
90,12,280,-376,-16896,112,-5,-26695
90,13,604,-212,-16768,82,-96,-10978
90,14,480,-324,-16972,-11,-25,-614
90,15,268,-1260,-17124,-10,75,1989
90,16,532,-3424,-17148,135,-117,1981
90,17,932,252,-17260,113,-252,1666
90,18,128,1208,-17496,513,-221,387
90,19,752,-368,-17120,235,-91,3441
91,0,-80,-1240,-16928,15,136,2536
91,1,76,-916,-17108,141,-105,821
91,2,-232,-608,-17696,74,-57,3849
91,3,-1916,1676,-17452,89,-79,-1276
91,4,-1188,1576,-16684,-37,161,355
91,5,100,-212,-17028,419,-289,-33
91,6,272,-488,-16952,-41,-84,596
91,7,2592,-1688,-16892,82,-13,3722
91,8,-976,496,-16920,194,-117,17876
91,9,1156,-1280,-17084,-204,-47,28368
91,10,-1200,-760,-16792,416,-230,23300
91,11,908,-280,-16976,1184,-658,12795
91,12,-1428,-424,-17380,1210,708,10760
91,13,-884,-1064,-17072,-1817,874,3830
91,14,1048,-3396,-17000,-1064,310,917
91,15,1120,-3504,-16952,54,224,-1053
91,16,204,-524,-16776,198,156,-1935
91,17,24,700,-17168,409,-84,-1317
91,18,40,1468,-17124,194,-126,224
91,19,-232,-64,-17160,762,-317,738
92,0,-992,-2292,-15972,2020,96,323
92,1,76,-1128,-16888,197,-55,-1395
92,2,-164,-952,-16996,1013,670,-92
92,3,656,-1084,-16640,-3747,-1423,-9403
92,4,-164,-1000,-17216,188,172,-23628
92,5,-360,288,-17076,262,-320,-24152
92,6,-1236,532,-16908,267,-298,-30764
92,7,1032,-912,-17036,85,5,-24218
92,8,-304,-132,-17008,101,-92,-16587
92,9,-704,-192,-17016,287,6,-6364
92,10,264,-224,-17032,11,-12,84
92,11,-312,-1260,-17160,206,-124,368
92,12,1532,-1852,-18132,292,-95,-3500
92,13,3468,-2400,-16640,454,-583,5364
92,14,-588,660,-17000,-63,243,9448
92,15,-3064,2640,-17108,251,-6,-168
92,16,-3924,1784,-16584,270,-14,-3555
92,17,-1628,-856,-16640,58,-522,1076
92,18,-580,-60,-16828,387,118,772
92,19,1884,-1148,-17428,-126,21,1949
93,0,-88,-480,-16996,-29,28,-4348
93,1,516,376,-17056,159,23,-11805
93,2,-2372,692,-17108,898,-342,-32768
93,3,-5580,-640,-16792,353,160,-32768
93,4,-1192,-2608,-16724,196,26,-15289
93,5,108,-244,-16868,293,-183,-2979
93,6,124,-232,-16900,69,-22,-50
93,7,168,-400,-17132,-244,-293,-64
93,8,-100,-3556,-16576,165,-81,993
93,9,348,-1256,-17412,168,20,-3333
93,10,-612,732,-18608,203,71,568
93,11,1532,-764,-14672,96,255,-1983
93,12,-380,1652,-18756,-209,85,-708
93,13,8,1268,-17508,-97,-64,772
93,14,524,240,-16956,161,-152,-332
93,15,-880,-168,-16992,125,-95,-593
93,16,104,-220,-16972,8,-90,-37
93,17,156,-224,-17000,113,-64,-5
93,18,328,-408,-16744,292,-322,8805
93,19,340,-1476,-16324,205,-274,32767
94,0,164,-352,-16948,116,-55,-28
94,1,92,-296,-16936,82,-25,-27
94,2,128,-260,-16952,49,-166,391
94,3,-408,144,-16936,-98,292,19793
94,4,156,-572,-16880,113,-120,27283
94,5,1188,912,-16788,699,-127,23189
94,6,4160,-1228,-16160,-812,589,16527
94,7,760,804,-16932,-480,101,15884
94,8,-536,16,-16700,95,-40,9952
94,9,-1084,-208,-16852,77,-55,4658
94,10,-540,-212,-17040,30,-86,503
94,11,-68,-2364,-16936,-66,196,3093
94,12,216,-2212,-16864,-275,-4,3376
94,13,1264,-1208,-16968,391,-81,3398
94,14,28,-768,-17316,959,-482,2451
94,15,-508,652,-17140,693,-280,5363
94,16,256,4124,-17368,-213,-133,151
94,17,32,-1048,-16392,1238,-88,-5124
94,18,-144,2716,-17012,-113,-66,-2424
94,19,-4,1352,-16344,0,-274,-1801
95,0,372,-104,-17040,-173,-166,1947
95,1,496,-276,-17024,209,-164,-9732
95,2,-552,-800,-17140,31,68,-12259
95,3,684,0,-16884,2,-41,-16304
95,4,348,-464,-16996,-5,-21,-23357
95,5,1332,596,-16720,164,130,-19300
95,6,1104,740,-17156,471,-421,-5908
95,7,1036,2408,-16672,135,-120,-5056
95,8,756,1920,-16848,163,2,-3701
95,9,164,-532,-18236,215,-197,-3204
95,10,-320,-2476,-16220,218,-104,-2029
95,11,512,-2948,-17244,9,61,-2260
95,12,296,-3920,-17044,86,4,448
95,13,-36,-2864,-16980,87,-173,1416
95,14,-300,-1420,-17336,-191,-208,315
95,15,-272,-444,-16544,42,116,741
95,16,-364,1348,-17172,130,-129,2237
95,17,1560,1764,-17316,-150,26,2676
95,18,556,1852,-17008,117,-152,468
95,19,216,-260,-16912,107,-116,2178
96,0,68,-2152,-16900,22,-65,1889
96,1,256,-1104,-17020,104,-53,508
96,2,216,-1584,-16896,76,-214,-739
96,3,328,-216,-17244,367,-134,-737
96,4,-72,184,-17192,146,-180,802
96,5,908,808,-17348,-204,-83,-348
96,6,-92,1348,-17016,134,-57,2961
96,7,152,-184,-16976,599,-220,-289
96,8,-24,1124,-17120,-110,102,1366
96,9,740,56,-16460,43,37,-846
96,10,-284,-980,-16476,0,-189,966
96,11,1560,-1332,-16888,2,7,-2678
96,12,-796,-1420,-17096,66,-49,-10320
96,13,-300,60,-17464,-17,-623,-23236
96,14,-1464,-1140,-17132,-24,77,-30629
96,15,160,1340,-16464,14,242,-16833
96,16,936,1916,-13532,-336,90,-7726
96,17,-1168,2672,-17340,-145,-172,-3380
96,18,888,-3080,-24896,-58,165,-2277
96,19,-472,-3704,-17052,-72,-144,1185
97,0,116,-276,-16980,130,-75,-41
97,1,128,-308,-16984,253,-126,-326
97,2,-828,-600,-17012,67,-59,-420
97,3,-1212,736,-16876,82,-92,-1296
97,4,-416,-48,-17068,153,-612,-372
97,5,-348,196,-17168,202,196,-1555
97,6,-12,-336,-17148,-246,-95,-212
97,7,1440,84,-17252,-7,46,-350
97,8,3088,-768,-17644,265,149,-1430
97,9,1684,904,-16988,105,-80,-898
97,10,-32,-348,-17060,79,-37,35
97,11,44,-972,-16888,5,-54,3280
97,12,-392,-1756,-17160,236,-27,-1340
97,13,-140,-1472,-16724,15,-10,-869
97,14,-516,508,-16448,334,-275,-249
97,15,-276,896,-16812,132,-322,-976
97,16,1268,260,-17024,75,-150,-1547
97,17,828,708,-16524,201,24,-1173
97,18,2316,-604,-17056,14,19,-2232
97,19,628,40,-17268,214,104,1360
98,0,100,-372,-17016,157,-53,-83
98,1,-184,460,-17144,117,-60,-740
98,2,36,1920,-16656,231,122,696
98,3,-104,536,-17584,349,33,2547
98,4,664,-1024,-16852,136,-517,2607
98,5,40,-2048,-16788,105,90,1377
98,6,152,-2744,-16440,191,-133,-316
98,7,-428,-656,-16996,87,-79,786
98,8,-1400,-524,-16924,87,-55,247
98,9,-1184,-984,-16596,68,-95,1357
98,10,224,-356,-17112,92,-95,486
98,11,2116,436,-16744,216,-114,-1282
98,12,68,228,-17020,238,-258,-2307
98,13,324,-16,-16988,184,-188,-11392
98,14,948,1120,-16588,-350,-205,-32768
98,15,-408,-72,-16760,1808,-270,-15691
98,16,228,-1532,-16292,-692,-297,-11167
98,17,68,-788,-16916,-1187,-6,-745
98,18,-188,-220,-17024,357,-4,-1125
98,19,60,-364,-16976,-99,-8,-139
99,0,-240,-428,-16936,177,-69,3064
99,1,940,-656,-16768,59,-371,4087
99,2,-1596,-1812,-16960,-441,771,-2133
99,3,-812,1664,-17092,45,-182,-23542
99,4,728,708,-16800,35,-171,-20745
99,5,-140,-672,-17068,789,-331,-8147
99,6,-1192,628,-16600,-723,-1417,-2565
99,7,-620,-128,-17192,21,1107,-8373
99,8,696,-448,-16924,61,-50,348
99,9,-264,720,-17064,-170,251,23959
99,10,468,724,-17068,615,-169,19101
99,11,-664,260,-16908,551,-402,26615
99,12,3124,-2708,-17124,440,-530,21904
99,13,1148,100,-16752,186,143,20914
99,14,784,-276,-17028,212,-84,18731
99,15,-984,-172,-16792,111,9,12959
99,16,20,-40,-17124,-100,-120,13247
99,17,700,-840,-16932,180,-50,6936
99,18,-880,-376,-16892,175,71,3161
99,19,-488,-504,-17056,437,393,-7139
100,0,100,-156,-17008,208,-127,-328
100,1,-460,-240,-16976,27,-55,82
100,2,-968,-272,-17004,45,66,13789
100,3,172,988,-17172,112,81,16600
100,4,200,-404,-17016,82,84,28767
100,5,100,1516,-16604,140,175,26676
100,6,-504,-80,-16796,213,75,20941
100,7,-728,352,-16640,120,-23,15647
100,8,944,556,-17008,44,75,12489
100,9,-1160,0,-17408,61,-169,6828
100,10,-912,104,-17072,137,-115,2516
100,11,-1424,-900,-16928,37,-66,-20058
100,12,-1212,-1232,-16768,126,-128,-31689
100,13,80,-3364,-16568,-15,-261,-32768
100,14,-1984,-2424,-17264,150,-114,-32768
100,15,-652,308,-17264,281,-134,-27514
100,16,-1176,-372,-17224,-62,-47,-28275
100,17,-936,644,-17284,46,167,-19902
100,18,-772,184,-17224,217,153,-9197
100,19,248,-412,-16924,68,-80,-718
101,0,-8,-352,-17000,51,-29,-24
101,1,-176,-328,-16940,152,-71,-4924
101,2,1408,-180,-16756,63,-249,-32768
101,3,208,-1808,-16588,38,-396,-32768
101,4,-3824,2512,-17452,-141,461,-32768
101,5,268,688,-16152,-543,1668,-20802
101,6,-220,-552,-17320,-14,-840,-3332
101,7,968,-1360,-16828,-107,-95,2463
101,8,440,-708,-18084,161,-310,2252
101,9,-416,-1320,-17956,108,270,3235
101,10,-552,1924,-18216,554,-405,14119
101,11,-1412,644,-17664,-1223,120,32767
101,12,6628,1208,-17816,469,-649,32767
101,13,-92,-624,-16712,406,139,27153
101,14,-864,-5136,-15412,-1293,537,32767
101,15,-276,-1376,-16932,-128,-115,18131
101,16,1304,-1504,-17284,258,57,12973
101,17,-468,-2828,-17160,196,125,2575
101,18,976,-1508,-16724,166,-283,-8519
101,19,-848,2052,-16712,82,21,-11761
102,0,-912,104,-16828,120,42,-13299
102,1,-180,-2144,-16928,140,-86,-18812
102,2,-2008,-1424,-16832,-107,208,-29253
102,3,-504,-1172,-16592,280,-173,-20572
102,4,828,-772,-16068,113,-60,4325
102,5,2748,-932,-17052,74,30,14306
102,6,860,208,-17836,-5,-320,14417
102,7,1324,-328,-14984,-1215,-407,10567
102,8,1152,796,-17264,94,-19,17808
102,9,2572,712,-16812,722,-358,24536
102,10,580,-1156,-16788,346,-164,19732
102,11,-276,16,-17164,-233,21,8140
102,12,2152,-1228,-16584,-65,233,-156
102,13,1824,-1084,-16828,-180,-293,-926
102,14,-1700,684,-17624,-333,135,-3510
102,15,-1796,-740,-16960,49,-142,-943
102,16,-3560,-32,-16892,37,250,-2008
102,17,-1236,52,-17000,10,12,383
102,18,308,-1884,-17216,124,-316,-772
102,19,-368,-1192,-17456,354,-249,-1275
103,0,68,-364,-16944,49,-30,-70
103,1,116,-344,-16968,103,-79,-65
103,2,152,-340,-16936,67,-71,-30
103,3,112,-352,-17004,146,-66,-76
103,4,-340,1704,-17020,49,-3,-984
103,5,-636,1556,-17480,-38,-147,606
103,6,856,176,-16252,-337,-69,912
103,7,944,-1960,-16484,-162,-129,794
103,8,-448,-3480,-16480,135,-71,220
103,9,-3912,-1264,-17052,-38,141,1750
103,10,-2820,72,-16596,-68,-133,2358
103,11,172,920,-16968,264,92,-576
103,12,352,992,-16480,26,-53,-3199
103,13,-708,1760,-17352,207,-258,-1019
103,14,3180,504,-17276,232,183,-4910
103,15,1408,552,-16664,-52,125,-2635
103,16,64,92,-17192,61,-160,-530
103,17,936,-404,-17032,127,-296,-1765
103,18,752,-3176,-17584,206,-103,-1072
103,19,44,-516,-17024,-377,-65,38
104,0,12,-412,-17064,-5,-34,-109
104,1,24,-756,-17104,175,-211,-13321
104,2,-320,-248,-17112,167,-86,-22065
104,3,3504,-316,-16808,251,-489,-23774
104,4,-688,820,-17032,336,23,-13879
104,5,1396,-1664,-17028,43,17,-20783
104,6,-524,-484,-16820,270,-114,-11677
104,7,76,-168,-17104,56,-73,2
104,8,616,-448,-16736,257,-161,23546
104,9,560,244,-17120,440,115,30766
104,10,1416,-236,-16916,4,293,30431
104,11,-1232,-8,-16700,114,58,28399
104,12,456,-1020,-17056,84,-88,26759
104,13,704,-308,-16976,85,-45,20716
104,14,72,376,-16924,168,-10,15255
104,15,-332,264,-16936,170,-24,15167
104,16,540,-696,-16908,501,54,13209
104,17,880,240,-17092,-235,90,8860
104,18,1164,388,-16800,24,-82,4841
104,19,712,1912,-16624,54,-81,440
105,0,0,-280,-16924,76,-28,-78
105,1,528,-532,-16900,18,-25,-13512
105,2,-4,-520,-16864,-16,16,-25095
105,3,1428,-792,-16936,-64,-73,-28337
105,4,3204,772,-17084,194,-256,-28709
105,5,3788,408,-17248,-115,-1159,-32183
105,6,1120,20,-17660,14,367,-24252
105,7,1140,1492,-17252,-270,156,-23491
105,8,3680,528,-18532,-313,-256,-13032
105,9,-2888,-3296,-16604,1056,3948,-32768
105,10,-352,1348,-16504,-699,-381,4111
105,11,-776,-756,-16772,153,130,5298
105,12,-772,-32,-16868,11,-68,11979
105,13,52,280,-16624,700,-385,16981
105,14,308,684,-17460,50,55,24278
105,15,-148,-132,-17316,-280,-165,32767
105,16,4388,-2224,-16828,914,-777,12248
105,17,4372,-2340,-17060,544,-374,21952
105,18,-728,372,-16924,83,-41,31743
105,19,-244,1244,-16880,159,413,32767
106,0,36,-204,-16912,388,-83,-22
106,1,72,-136,-16936,218,-9,-98
106,2,-120,-1444,-17060,-105,11,-21560
106,3,28,1420,-16732,510,13,-22008
106,4,156,-508,-16988,73,120,-26209
106,5,-2164,1072,-17144,204,75,-31766
106,6,-1500,1080,-17000,319,102,-20381
106,7,-228,392,-16868,298,-79,-9857
106,8,444,-288,-17044,-131,-102,-1111
106,9,-64,-976,-17524,105,-178,-10166
106,10,856,-2728,-16924,32,-10,-2211
106,11,-208,-1032,-17096,-53,-241,-1820
106,12,-460,964,-17840,182,-196,-3002
106,13,-96,-560,-16404,429,115,-3385
106,14,-796,-136,-16816,62,-54,-2346
106,15,-984,-480,-17700,158,7,-3100
106,16,-180,904,-17512,258,88,-2384
106,17,288,-232,-16448,92,20,-278
106,18,112,556,-17536,135,-56,47
106,19,32,1240,-16808,121,-41,960
107,0,-20,-16,-16980,165,-69,-1827
107,1,-720,-256,-16748,364,353,-23213
107,2,-356,2164,-17424,412,325,-19415
107,3,-944,232,-16360,565,-877,-18247
107,4,580,1520,-16688,139,-694,-18972
107,5,2292,-1084,-16788,-434,-228,-11811
107,6,-264,1000,-16860,73,-260,-9601
107,7,-36,156,-16912,-131,-143,-1459
107,8,-368,-1560,-16232,508,509,-6277
107,9,-84,-1972,-17448,-36,-207,-949
107,10,-1452,-896,-16604,81,-23,695
107,11,200,-488,-17700,20,-70,4638
107,12,1108,1820,-17292,478,-233,1234
107,13,464,-644,-16804,-154,-207,2912
107,14,528,192,-17036,269,-292,1975
107,15,516,1380,-16568,-96,-282,1784
107,16,924,-136,-16828,7,-242,958
107,17,-380,1588,-17312,103,168,-1287
107,18,-1392,864,-16896,-397,-2158,1511
107,19,-100,-292,-17108,30,734,-128
108,0,88,-276,-17008,75,-22,-60
108,1,48,-324,-17004,26,-92,-71
108,2,-220,-1212,-16988,134,-32,-591
108,3,-56,-1644,-16856,-54,-106,-656
108,4,-568,-1516,-16384,274,-19,-182
108,5,640,-812,-16692,14,-121,-531
108,6,292,-332,-16360,-89,-87,-157
108,7,380,904,-18428,-178,-188,-582
108,8,-260,1100,-17672,208,-337,771
108,9,-640,20,-16924,361,-157,1961
108,10,-232,-360,-16612,-74,-85,830
108,11,144,-300,-17036,379,-169,-540
108,12,-60,652,-16760,266,90,1268
108,13,136,1156,-17056,167,-86,-1398
108,14,340,420,-16980,106,-47,-477
108,15,-28,-384,-17004,166,-114,-39
108,16,64,-368,-17024,133,-37,-58
108,17,-24,-472,-16988,120,-45,-54
108,18,60,-356,-17084,195,-45,-67
108,19,1600,6936,-17296,497,-105,-235
109,0,112,-312,-16912,63,-74,-88
109,1,20,-404,-16972,194,-67,-76
109,2,204,1208,-16712,218,-131,-1686
109,3,-572,2692,-16372,754,94,996
109,4,500,1100,-15956,-392,-140,2546
109,5,212,-724,-17120,-105,-135,1926
109,6,-184,-2464,-16772,54,-224,1371
109,7,636,-2500,-17000,-4,-11,-451
109,8,496,-428,-16904,78,-104,200
109,9,2276,-112,-16584,255,-129,888
109,10,2664,-620,-16968,-149,-141,-309
109,11,-404,496,-16072,57,73,1479
109,12,-2192,-748,-16836,-43,151,293
109,13,-1280,-860,-17368,71,-76,1875
109,14,52,-308,-16924,-19,29,-107
109,15,132,-272,-16884,90,-70,-11
109,16,84,-352,-16920,89,-31,-62
109,17,140,-408,-16940,59,-48,-19
109,18,-4,-316,-16876,67,-74,-57
109,19,1452,1820,-16984,89,-69,-1332
110,0,64,-400,-16976,78,-75,-61
110,1,104,-396,-16904,101,-53,-69
110,2,56,-360,-16924,86,-8,-88
110,3,-512,1652,-16968,112,-74,-836
110,4,388,-344,-17228,-56,118,478
110,5,304,-732,-17156,192,-65,551
110,6,-208,-1064,-17116,-165,4,375
110,7,-736,-1488,-17140,201,-128,549
110,8,8,-2532,-17004,56,-37,-133
110,9,-1368,-16,-16872,135,-87,982
110,10,-1272,-340,-16440,106,-230,-813
110,11,84,-524,-17136,232,-232,-109
110,12,396,-468,-16984,-82,149,-811
110,13,196,140,-16888,-2,-280,357
110,14,592,-280,-16824,185,-163,1288
110,15,224,80,-16900,265,-240,87
110,16,1184,-848,-17364,134,127,908
110,17,1700,-1504,-17060,104,-88,145
110,18,416,-604,-16984,109,-74,28
110,19,140,-268,-16980,40,-68,-44
111,0,28,-328,-16932,43,-27,-84
111,1,52,-256,-16928,60,-78,-55
111,2,116,-400,-16912,-1,1,-64
111,3,252,-284,-17004,58,-77,187
111,4,-100,-816,-16920,91,-12,-739
111,5,368,-556,-17028,59,-16,-1013
111,6,444,508,-16952,66,-107,-890
111,7,108,-424,-16928,156,-121,-40
111,8,208,-328,-16900,59,-93,-26
111,9,1776,-920,-16772,33,-17,897
111,10,700,-728,-17028,41,-12,-583
111,11,-1076,-96,-16720,174,-79,686
111,12,168,-384,-16972,30,-24,-69
111,13,40,-344,-16940,78,-35,-102
111,14,40,-384,-16928,56,-42,-48
111,15,68,-292,-17008,62,-61,-51
111,16,64,-364,-16976,85,-57,2
111,17,1328,-896,-16864,114,-169,-1854
111,18,288,52,-16392,166,72,-438
111,19,-868,-4,-16876,111,-43,526
112,0,76,-304,-16928,132,-72,-52
112,1,4,-320,-16944,116,-112,-133
112,2,560,-284,-16884,26,-34,-1019
112,3,-364,-252,-17052,27,-43,-107
112,4,-88,-308,-17036,100,-47,188
112,5,64,-424,-16968,70,-42,-84
112,6,4392,-632,-17648,82,-105,-38
112,7,244,-144,-17200,35,-91,485
112,8,-596,-276,-16820,106,7,-38
112,9,60,-756,-17028,23,-29,333
112,10,100,-1492,-16904,122,34,-404
112,11,-292,-1324,-17056,49,-79,-234
112,12,-756,160,-17104,-9,-14,-580
112,13,-168,340,-16820,113,-198,248
112,14,120,-496,-16684,35,-82,738
112,15,68,1000,-16832,115,-86,-121
112,16,-20,-324,-16948,35,-64,-48
112,17,88,-272,-16936,-7,27,-60
112,18,132,-892,-16816,-23,-33,59
112,19,-116,-524,-16992,40,-29,-548
113,0,-64,-232,-16948,18,-19,-60
113,1,-548,-324,-16956,101,-40,591
113,2,-260,-748,-17008,-1,-206,247
113,3,452,-220,-16700,18,-53,215
113,4,1132,-324,-16808,93,-46,37
113,5,540,-304,-17016,73,-29,-73
113,6,20,-328,-16900,71,-48,-41
113,7,12,-220,-16952,61,-24,-62
113,8,-528,-372,-16976,160,-79,631
113,9,-344,-380,-16652,73,12,-42
113,10,-1700,316,-16720,110,-161,-174
113,11,1032,-260,-16764,90,-172,427
113,12,876,-252,-17088,109,20,-319
113,13,284,316,-16968,146,-86,-873
113,14,-356,392,-17032,112,-164,866
113,15,-48,-100,-17000,69,17,716
113,16,132,-2296,-17228,181,-97,-168
113,17,268,-1060,-17108,103,-67,460
113,18,156,72,-17172,82,13,-1130
113,19,-16,-624,-16968,108,-57,-519
114,0,276,204,-17020,-29,-53,-690
114,1,364,-3956,-16500,325,-284,289
114,2,-240,-3384,-16536,286,-142,-2388
114,3,-228,-1588,-17328,-78,-282,-2635
114,4,916,56,-16984,-151,187,-2833
114,5,-448,5480,-17060,-236,-117,-2856
114,6,-708,-404,-17008,270,13,1391
114,7,-320,552,-17348,-181,-271,-74
114,8,3412,-28,-17396,100,-89,584
114,9,80,-384,-17004,146,-121,-28
114,10,-352,-1024,-16768,57,-72,743
114,11,-1032,-1316,-16936,-68,-139,-1272
114,12,-888,-856,-16920,78,-152,62
114,13,372,1888,-16860,279,-91,-629
114,14,640,1300,-17016,220,-64,-1697
114,15,-724,-824,-17288,-140,-155,327
114,16,1132,-392,-16760,101,-207,229
114,17,2328,-324,-16768,40,-58,1553
114,18,-508,2768,-16740,180,-59,2363
114,19,-192,2084,-16640,-34,28,4235
115,0,88,-260,-16952,70,-72,-97
115,1,-132,2960,-17048,15,-78,-1263
115,2,-1816,2000,-17112,106,-74,3784
115,3,2416,-2668,-17552,144,-271,532
115,4,772,-2740,-17480,223,159,22
115,5,384,-3060,-16980,238,-98,265
115,6,-692,-940,-17172,38,-10,-825
115,7,-644,-24,-17004,127,-98,-220
115,8,-332,-344,-17100,71,106,317
115,9,1696,-732,-17060,97,-19,-328
115,10,-632,-3228,-16960,30,-127,-1028
115,11,824,-5400,-16908,-225,192,-1043
115,12,1700,380,-16720,35,-230,-2520
115,13,-476,464,-16940,336,-331,26
115,14,708,-236,-17244,-232,-117,2711
115,15,352,2460,-17040,-249,144,-479
115,16,56,2608,-16948,23,-45,-900
115,17,20,-352,-16940,78,-39,24
115,18,1508,-1236,-17140,87,18,771
115,19,1260,-904,-17208,111,2,1984
116,0,784,-480,-16672,-43,-16,-1938
116,1,1308,620,-16756,96,210,-2400
116,2,1876,-200,-17392,239,-358,-1694
116,3,616,-492,-17384,22,-43,-337
116,4,-164,-336,-16580,87,-320,-127
116,5,-1548,920,-16992,193,-59,1685
116,6,-812,2444,-17020,276,132,1394
116,7,900,2768,-15160,272,-3,2767
116,8,-1680,-380,-17660,-90,33,1657
116,9,-60,-1276,-17324,-86,107,2001
116,10,-232,-2512,-16676,-42,41,1572
116,11,764,-3488,-16568,-61,-38,914
116,12,-2112,-960,-17008,31,-138,-2407
116,13,-1476,48,-16708,198,164,-237
116,14,836,-480,-16880,-57,-173,579
116,15,1692,-184,-16792,59,-57,-145
116,16,-436,-792,-16856,23,-14,2943
116,17,92,-3528,-16908,23,-77,864
116,18,-1276,-964,-16848,68,-275,-1710
116,19,-788,2096,-17460,95,-107,-967
117,0,408,-288,-16848,131,-32,1384
117,1,80,-332,-16948,2,-15,-43
117,2,-1724,-456,-17188,-57,-23,-1922
117,3,-384,608,-17528,88,-234,313
117,4,-4,64,-16948,251,-184,-924
117,5,-152,-56,-16940,-31,-105,-517
117,6,1328,-608,-17272,120,-107,713
117,7,1872,268,-16908,68,9,149
117,8,1068,1848,-17008,166,-169,914
117,9,-312,1264,-17260,6,238,2574
117,10,688,-2376,-16912,423,-240,273
117,11,356,-3124,-16760,239,104,1470
117,12,696,-1956,-16944,-16,-62,-1630
117,13,3456,-764,-17124,203,-131,-342
117,14,1876,-340,-17548,31,-225,1079
117,15,-200,-348,-16824,220,-473,2034
117,16,-1240,-144,-16840,80,-43,450
117,17,-1776,-1216,-16852,-15,-141,1331
117,18,1268,-540,-17244,-7,123,9
117,19,384,-252,-16452,-124,-80,509
118,0,68,-304,-16996,82,-19,-77
118,1,820,-1532,-16956,262,-152,30
118,2,1860,-3996,-17092,168,-31,-268
118,3,-80,-1524,-16900,-83,151,1207
118,4,732,-204,-17120,461,36,-624
118,5,404,-1072,-16552,535,-143,93
118,6,464,-332,-17084,246,14,-679
118,7,180,20,-16964,137,-199,2303
118,8,808,-640,-17032,246,-95,1745
118,9,116,408,-16772,-72,-45,-1386
118,10,-124,992,-16824,220,-97,-486
118,11,4,440,-16980,184,-68,-131
118,12,-40,1564,-17104,53,-86,-664
118,13,64,-320,-16888,69,-83,-101
118,14,-44,-344,-17012,106,-29,-79
118,15,64,-420,-17024,125,-50,-84
118,16,132,-376,-16964,76,-90,-40
118,17,132,-456,-16944,62,-50,-112
118,18,128,-416,-16980,84,-34,-87
118,19,80,-296,-16952,75,-41,-44
119,0,64,-344,-16948,73,-28,-63
119,1,148,-460,-16980,82,-88,-53
119,2,96,-344,-16960,89,-43,-48
119,3,52,-376,-16992,70,-62,-77
119,4,180,-332,-17020,83,-51,-31
119,5,184,-300,-16940,158,-79,-64
119,6,336,544,-16824,184,-62,-1693
119,7,352,1244,-17452,-10,-88,-517
119,8,892,92,-17428,-3,-297,283
119,9,476,344,-16892,-107,-244,-344
119,10,220,1392,-16184,38,49,847
119,11,612,-1320,-17240,-239,-124,689
119,12,-476,-4276,-16112,-29,93,-1323
119,13,-20,-472,-17040,-74,14,-146
119,14,-1880,36,-17108,60,41,-102
119,15,-4384,1336,-16672,315,-346,652
119,16,-1708,-1252,-17412,-121,99,124
119,17,52,-1416,-16396,286,-514,-152
119,18,240,-432,-16608,-21,-285,1664
119,19,1120,-704,-15852,341,-221,1063
120,0,-40,-1212,-16948,30,-38,-1826
120,1,128,-2732,-17112,-2,-24,-948
120,2,468,-2048,-16508,-34,66,-1810
120,3,412,-1464,-17376,171,30,-727
120,4,520,-1292,-16636,-109,-30,2107
120,5,-336,-72,-16968,61,-281,942
120,6,-848,1624,-16552,360,74,-456
120,7,-120,440,-16936,68,-106,545
120,8,-76,1368,-17248,-154,-47,-1765
120,9,-772,1256,-17128,116,-36,-990
120,10,-324,1296,-17156,47,-88,-1067
120,11,100,1320,-16896,73,-98,-648
120,12,124,-356,-16960,92,-50,-84
120,13,20,-440,-17024,90,-18,-38
120,14,88,-404,-17048,71,-36,-57
120,15,16,-256,-17008,120,-37,-42
120,16,96,-424,-17036,79,-22,-60
120,17,68,-352,-17004,109,-38,-86
120,18,72,-332,-16976,71,-59,-77
120,19,52,-356,-17008,134,-67,-56
121,0,112,-276,-16956,-152,123,-48
121,1,-28,-2236,-16916,99,-61,366
121,2,188,-1572,-17072,163,-86,198
121,3,16,-864,-16984,120,-173,-1423
121,4,84,-148,-17328,-78,-172,-1602
121,5,100,-648,-16684,86,-239,-1914
121,6,132,40,-17132,113,-133,-1640
121,7,424,-56,-17044,131,23,-979
121,8,-148,196,-16900,276,21,-684
121,9,308,-576,-16972,61,150,-1004
121,10,604,-552,-16976,160,-105,-1095
121,11,84,-612,-17136,329,-63,-829
121,12,-44,-1164,-16536,-126,-83,345
121,13,96,420,-16720,222,-3,-1680
121,14,1328,1888,-16972,554,-138,-160
121,15,1236,304,-17124,60,-190,-712
121,16,-788,280,-16760,-185,205,-315
121,17,224,-344,-16624,49,-22,2020
121,18,128,-736,-16568,203,-12,1556
121,19,24,-200,-17148,39,118,540
122,0,164,-316,-16940,73,-55,-93
122,1,128,-236,-17028,45,-53,18
122,2,112,-676,-17156,87,-64,715
122,3,344,-2112,-16912,41,-15,-520
122,4,856,-1072,-17040,132,-22,439
122,5,776,888,-17944,319,-98,-1973
122,6,-692,1424,-17128,97,160,-292
122,7,-3020,1368,-17104,137,-38,-2003
122,8,-2136,1080,-16712,371,-216,550
122,9,796,-188,-17392,-164,160,1149
122,10,1600,-472,-16924,14,-63,-239
122,11,2296,-2732,-17296,-131,-102,797
122,12,84,-2648,-16868,314,-154,-788
122,13,472,536,-17728,228,-410,-1076
122,14,-156,656,-17444,176,155,-960
122,15,584,88,-17176,137,-339,-2210
122,16,580,2176,-17072,42,39,-1439
122,17,840,1128,-16952,174,-88,-802
122,18,16,1132,-17080,73,53,1108
122,19,716,-152,-17084,-50,11,1030
123,0,148,-92,-16764,161,146,-770
123,1,-8,-108,-16908,30,-78,-424
123,2,-172,-772,-16872,182,-100,-673
123,3,-584,1184,-17060,283,-12,-495
123,4,-212,-204,-16724,127,-209,-93
123,5,-588,364,-17136,313,12,280
123,6,832,2184,-16732,64,-24,-688
123,7,-1508,768,-17160,183,-126,1456
123,8,792,-780,-16376,39,-45,1134
123,9,404,-2200,-17412,-178,300,1697
123,10,80,-1572,-16872,130,-134,1813
123,11,-1216,-1816,-16672,31,-18,1045
123,12,1292,-1360,-17504,-3,149,-339
123,13,956,-1136,-16880,267,-25,-1635
123,14,1044,-552,-16972,25,-135,-2019
123,15,260,464,-16964,-16,-249,-1639
123,16,584,1300,-17928,16,-109,-2615
123,17,1208,928,-16828,171,141,-2899
123,18,1104,100,-16512,73,97,-2160
123,19,-216,396,-17336,98,68,282
124,0,-64,-908,-16976,97,-27,-280
124,1,140,-292,-16952,123,-82,-67
124,2,140,-232,-16924,62,-65,-67
124,3,0,-352,-16960,-189,30,141
124,4,284,-1648,-16704,61,-105,-344
124,5,-84,-1884,-16936,-18,-56,-725
124,6,-1376,668,-16540,117,3,-742
124,7,-288,976,-16944,235,-152,-987
124,8,-768,288,-17056,156,-109,-361
124,9,-492,-216,-17324,118,82,267
124,10,204,-864,-17120,71,562,270
124,11,2620,-984,-17224,90,5,1288
124,12,840,-1008,-16608,-38,-117,78
124,13,1088,-2552,-16876,137,39,-1237
124,14,304,-620,-16600,365,-235,-2339
124,15,812,360,-17028,170,-24,-2532
124,16,1684,1696,-17260,154,-154,-1824
124,17,1036,588,-16244,127,-85,-1661
124,18,652,-80,-16728,114,39,1057
124,19,876,-548,-16352,126,-64,415
125,0,-88,-1308,-17432,283,-222,-758
125,1,-336,-2560,-16720,272,127,-1563
125,2,-408,-892,-16848,123,-324,-2408
125,3,-600,-436,-15460,301,-12,-3280
125,4,236,3376,-17004,321,-352,-565
125,5,-756,292,-17104,175,-185,279
125,6,-440,-1152,-16576,-88,-113,478
125,7,888,-724,-17812,198,-427,320
125,8,228,236,-16744,21,277,-701
125,9,1800,-2592,-17344,219,-117,1729
125,10,988,-656,-17156,137,11,-1950
125,11,724,-76,-16400,-88,-164,-3423
125,12,808,72,-16600,-1,38,-3823
125,13,584,1808,-16820,234,-254,-1737
125,14,956,496,-16596,-178,28,-1384
125,15,-704,864,-16868,99,-45,414
125,16,-400,1044,-17176,158,114,1777
125,17,-456,580,-16748,191,-420,1501
125,18,-1100,844,-16664,-95,-3,1068
125,19,-1484,88,-17208,92,-15,1989
126,0,296,-196,-17000,140,-114,-598
126,1,-160,-448,-16980,109,-29,11
126,2,104,-404,-16932,90,-33,-40
126,3,1504,-284,-16980,59,-3,697
126,4,932,340,-16996,89,25,-1278
126,5,-636,-284,-16872,7,-47,-851
126,6,-1700,-908,-16988,37,-58,-320
126,7,-204,-432,-17192,359,-147,343
126,8,-1536,-516,-16700,85,18,540
126,9,-676,-188,-17028,-81,158,-155
126,10,124,-224,-17460,-17,16,-526
126,11,-60,-380,-16712,3,85,-221
126,12,1448,-344,-16368,264,-279,289
126,13,328,28,-16792,267,-311,-14
126,14,2848,-492,-16888,52,34,1732
126,15,360,-68,-16936,421,-188,-1021
126,16,412,-112,-16100,25,-287,-2061
126,17,-3332,-28,-16976,-119,131,-945
126,18,-4592,-324,-16856,-315,369,385
126,19,-1956,-652,-17064,102,-286,602
127,0,5220,-372,-16752,-81,-278,948
127,1,144,828,-16984,-13,197,-1513
127,2,-2748,656,-16668,26,-177,367
127,3,-2180,-1816,-17068,127,-89,-115
127,4,-1264,-5152,-15296,-299,192,-275
127,5,-4,-2444,-16960,252,-126,607
127,6,-192,-2316,-17096,155,-90,-931
127,7,232,-1836,-16412,225,-26,-1059
127,8,368,1692,-16800,-58,-121,-2973
127,9,504,5460,-17208,33,-30,-108
127,10,-40,3540,-17092,73,-43,278
127,11,972,1100,-16872,75,-337,2387
127,12,44,-1404,-17472,187,2,3000
127,13,-752,-3128,-16712,-5,-273,1506
127,14,556,-3140,-17060,9,-115,2736
127,15,416,-4360,-17160,-149,234,-1297
127,16,-504,-780,-17220,430,74,-4062
127,17,-28,2724,-17804,308,210,-3031
127,18,1720,4348,-16768,113,0,-729
127,19,236,3792,-16936,-28,-231,1880
128,0,72,-312,-17060,52,-36,-81
128,1,296,-1632,-16972,142,-4,-233
128,2,-264,-2536,-17556,255,-46,-825
128,3,-80,-1932,-15836,-87,-71,-2812
128,4,480,1540,-17404,-45,80,-2992
128,5,868,1204,-16864,264,-87,-1512
128,6,-216,16,-17228,858,-440,-415
128,7,764,5672,-15508,-241,-204,3074
128,8,468,1788,-17088,-31,55,2093
128,9,-1432,-2336,-16780,270,-356,2729
128,10,-488,-6364,-16596,28,-15,2716
128,11,244,-5076,-17004,3,-45,-680
128,12,1148,-3992,-16864,573,354,-5356
128,13,-436,1704,-17848,-107,-136,-5252
128,14,-2048,4324,-17112,142,-31,-3541
128,15,3040,760,-16852,904,-657,-671
128,16,-1136,4576,-16872,22,182,1095
128,17,876,924,-17480,82,-165,3713
128,18,1244,-2776,-16616,82,-47,2784
128,19,484,-3600,-17292,-181,-64,600
129,0,1876,288,-17244,43,-9,-150
129,1,132,-224,-17008,228,-88,-52
129,2,968,784,-17368,-140,59,333
129,3,-2428,-3792,-16588,0,54,15
129,4,-2408,-2484,-16424,28,-152,59
129,5,-224,-180,-17488,-95,13,-2183
129,6,2124,2472,-17584,-355,270,-2464
129,7,4900,4496,-17140,149,-133,-1065
129,8,3980,2712,-16976,11,-163,125
129,9,1344,2108,-16496,-442,-432,216
129,10,-1380,-564,-17308,67,-140,-327
129,11,-2412,-3172,-17120,-119,-55,160
129,12,-4920,-4208,-17148,-1146,837,187
129,13,-3548,-3268,-16648,142,-289,715
129,14,-500,-1452,-17080,-379,502,-462
129,15,1924,1656,-16228,-15,-173,-1600
129,16,5620,5072,-16880,225,-38,-123
129,17,3372,3152,-16540,21,-82,971
129,18,1268,708,-17292,208,228,450
129,19,-1560,-1368,-17324,202,-177,353
130,0,-520,-544,-17004,-230,22,278
130,1,-196,-1820,-17288,284,37,238
130,2,-1788,-1784,-17768,540,76,-3643
130,3,116,360,-17584,325,215,-1047
130,4,-1260,1076,-18512,421,-90,-2648
130,5,-1948,1856,-16360,45,-235,-1530
130,6,176,2804,-16244,-19,17,1866
130,7,1372,1916,-15644,301,1,2778
130,8,3228,940,-16404,134,34,-2966
130,9,4040,-192,-16204,146,-74,2160
130,10,2996,-1872,-16436,-237,67,-117
130,11,180,-3712,-17048,508,-61,-2246
130,12,-1604,-3908,-16972,-157,267,11
130,13,-1100,-2708,-16948,361,-596,-2182
130,14,-2064,-716,-16816,239,-232,-2650
130,15,-4128,896,-16376,-32,33,-2831
130,16,-1112,1624,-17252,-76,161,-2212
130,17,876,2492,-17096,75,395,-760
130,18,1864,1652,-16768,213,-240,4298
130,19,3684,316,-16824,299,-267,2962
131,0,-560,-440,-16964,85,-8,-374
131,1,-896,32,-17076,143,14,2030
131,2,-1668,-80,-17012,-90,-98,1638
131,3,-2292,-1224,-16772,-11,-548,4808
131,4,8,-2912,-17456,427,-554,4938
131,5,1692,-3524,-16704,-325,353,2263
131,6,3260,-2224,-16916,273,-73,-2008
131,7,2204,288,-17160,-126,89,-3707
131,8,2552,3272,-17284,-14,-128,-4620
131,9,-92,4172,-16812,367,184,-932
131,10,168,2436,-17104,0,-244,272
131,11,-2612,520,-16912,156,-237,945
131,12,-2936,28,-17628,-299,-133,2525
131,13,-3276,-1284,-15600,-16,-140,5229
131,14,-2544,-3188,-17476,206,404,5641
131,15,688,-3772,-16604,252,-156,3939
131,16,2732,-2852,-17072,-141,-403,464
131,17,3104,-2232,-17652,-27,-219,-816
131,18,3248,332,-16932,416,-65,-4315
131,19,1500,2052,-16480,124,18,-5775
132,0,744,460,-16916,107,-27,-195
132,1,1208,740,-17084,215,-57,-1749
132,2,-664,-488,-17804,144,-227,959
132,3,-2240,-2000,-17564,121,224,1293
132,4,-1180,-3888,-17048,-100,23,-1664
132,5,228,-2188,-18400,49,-127,-2583
132,6,-684,-324,-17088,113,-109,-4335
132,7,-972,756,-16520,187,-626,-3747
132,8,-16,1260,-17056,150,-24,-1848
132,9,-964,3544,-17052,188,-105,-2336
132,10,-1924,1436,-16816,366,-256,-211
132,11,-80,-560,-17372,-215,113,1179
132,12,5808,96,-17120,135,-55,-1186
132,13,-92,3832,-17184,-29,27,219
132,14,-1080,1480,-16896,397,46,596
132,15,-712,-1388,-16928,-46,-261,555
132,16,3744,-3644,-16916,-26,-164,2330
132,17,5072,-980,-16772,281,-512,-3326
132,18,-2216,2216,-16932,-230,26,-3075
132,19,-3620,1348,-17112,-87,-394,860
133,0,104,-176,-17000,-48,62,-90
133,1,116,-2324,-16868,114,-109,457
133,2,1244,-1168,-17124,209,-259,-1431
133,3,-1012,1032,-17276,206,-80,-2157
133,4,2660,1928,-17380,213,-9,-858
133,5,4848,1156,-16884,105,-19,-1298
133,6,-2612,-244,-17440,-241,-188,259
133,7,-2992,-1792,-16776,71,-105,-637
133,8,-772,-2916,-16988,78,-36,352
133,9,-876,-840,-17852,142,-290,-2383
133,10,-1260,1792,-17476,165,-26,-2670
133,11,-676,3304,-16756,404,97,-1401
133,12,-3136,2456,-16124,-62,-263,767
133,13,3496,-1852,-16628,-311,119,3766
133,14,5580,-768,-16896,361,-248,534
133,15,-436,1772,-17360,348,99,220
133,16,912,-188,-16708,-145,-199,-594
133,17,1480,-1952,-16736,90,116,-1512
133,18,1248,-2224,-17328,24,-334,-1694
133,19,-2792,652,-16684,265,-40,-891
134,0,-1876,-1692,-16828,157,-14,-2276
134,1,-856,-2836,-16976,206,-98,-1859
134,2,-1204,-1640,-16588,-42,21,-2897
134,3,-2292,524,-17252,253,-102,-19
134,4,-2184,1552,-17140,245,-369,2470
134,5,2492,-996,-16920,546,-514,1085
134,6,4416,132,-16880,308,-97,-739
134,7,3740,1036,-17156,422,-124,-1467
134,8,1388,1532,-17084,-125,109,-1185
134,9,-188,1908,-16596,200,-426,-1723
134,10,-1280,808,-17292,258,-185,6
134,11,-2184,-120,-17204,239,94,3439
134,12,-4132,-696,-16680,-38,-42,-1632
134,13,-1840,-772,-17228,425,280,1702
134,14,2116,-324,-16676,800,355,2015
134,15,4656,-132,-16896,167,-343,1333
134,16,3556,-1484,-16920,194,-187,-792
134,17,1212,-1196,-16644,126,-268,-2196
134,18,-412,-3440,-17400,-60,-472,-2413
134,19,-228,-2988,-17472,54,232,-2800
135,0,1016,1356,-16884,234,-140,-1478
135,1,0,1380,-17260,208,298,-2724
135,2,-1176,76,-16968,35,113,-767
135,3,-3320,864,-17028,118,-313,-58
135,4,-2572,-1376,-17420,113,168,1417
135,5,-2548,-1496,-17208,141,30,2652
135,6,-1184,-392,-16852,403,14,5586
135,7,-76,-468,-17420,78,258,5038
135,8,2152,-576,-16752,187,-200,6289
135,9,4436,736,-16980,271,-273,525
135,10,2476,-216,-16892,56,-112,-575
135,11,2148,-1904,-16732,13,268,-5453
135,12,-292,-2164,-17312,-124,-41,-4848
135,13,-2952,-1752,-16572,392,-300,-3536
135,14,-1988,-664,-17180,-60,-51,-2662
135,15,-1784,-1444,-17164,425,-116,-2015
135,16,-1868,-944,-17188,-220,210,-1169
135,17,-2212,400,-16740,332,173,2726
135,18,2120,-196,-17468,284,37,2725
135,19,3036,20,-17316,168,-280,239
136,0,-828,-768,-17104,165,41,-3452
136,1,-2188,-1556,-16340,132,-358,-3137
136,2,-2168,1184,-17392,584,-578,-905
136,3,-1700,2004,-15976,-68,104,1419
136,4,2996,988,-16200,573,-390,5931
136,5,7644,220,-17496,239,-332,2247
136,6,2308,4,-16396,108,-237,-1758
136,7,1220,-652,-16432,61,-183,-2753
136,8,-5844,312,-16972,112,-34,2233
136,9,-3320,-1760,-17528,97,-298,1328
136,10,-2760,-2508,-17608,85,-77,954
136,11,-2088,-1872,-16788,260,-280,1008
136,12,-344,-2040,-17784,-237,20,4393
136,13,4204,-3144,-16716,-110,-411,4589
136,14,5980,1296,-17412,223,-369,-122
136,15,664,-124,-16572,248,-387,-4686
136,16,-2920,-604,-16156,339,-105,-6385
136,17,-4844,-44,-16724,58,-427,-4704
136,18,-2244,964,-17512,389,-91,-1154
136,19,-2480,800,-16444,-95,-195,99
137,0,-2932,-948,-17120,-12,-126,4895
137,1,-2116,-200,-17420,213,-289,3323
137,2,320,-648,-17392,-111,-229,1703
137,3,524,-2912,-16316,-13,-294,1300
137,4,3692,-112,-17432,-184,217,-972
137,5,2408,280,-16120,383,-83,-2433
137,6,2824,1756,-17140,265,231,-4477
137,7,-1204,164,-17240,-71,-529,-2353
137,8,-684,-2624,-16752,172,621,-3653
137,9,-4164,-1344,-16836,-154,-89,-3688
137,10,-2448,-576,-16872,337,245,-2166
137,11,-3200,208,-17028,146,-429,-3141
137,12,-2204,2060,-18076,321,-559,-225
137,13,1784,2160,-16436,137,-211,4237
137,14,5740,1864,-16800,196,-374,1548
137,15,4524,1988,-17268,-2,295,-162
137,16,-820,-544,-17280,-137,-503,-2972
137,17,-4272,-468,-17216,85,-394,1100
137,18,-4440,-2328,-17152,-63,177,3678
137,19,-3808,-3056,-16944,-120,9,4523
138,0,-192,2004,-17144,-19,-204,369
138,1,-688,1748,-17536,113,9,1239
138,2,-532,608,-18372,71,-536,2357
138,3,-984,-2328,-16540,234,-157,2734
138,4,-1836,-3960,-17668,85,-174,1580
138,5,-1460,-3368,-17128,-72,-450,2261
138,6,-1320,-736,-16480,285,-260,-910
138,7,1356,-1368,-16220,143,-188,2201
138,8,4752,-1080,-16700,-269,84,748
138,9,340,-2752,-17012,191,-440,-1466
138,10,72,-1056,-17668,644,-241,-702
138,11,1564,1104,-18576,98,-460,-5950
138,12,-1756,3944,-16860,-64,-50,-5161
138,13,2820,2548,-16996,385,-79,-512
138,14,2924,276,-17248,78,-171,-462
138,15,-72,24,-17304,38,68,202
138,16,-5832,-436,-17120,-90,-195,-2111
138,17,-4744,1636,-16804,90,-117,1600
138,18,-1024,1780,-16960,-16,-261,377
138,19,-1500,-648,-17028,-53,-466,2709
139,0,112,-220,-17112,202,-191,100
139,1,5028,-1060,-16712,66,-19,-782
139,2,1204,272,-17236,29,13,-120
139,3,-1372,148,-16924,-282,-560,-2475
139,4,-5536,-672,-16848,141,166,-2480
139,5,-3084,-1748,-17176,187,-12,-4252
139,6,-1576,-2244,-16660,163,-37,1122
139,7,1140,-1676,-16520,33,-26,997
139,8,176,440,-16372,-223,94,-1203
139,9,1120,2220,-17016,104,-370,-3515
139,10,1784,1316,-16808,21,-12,-2360
139,11,4488,48,-16928,11,-78,-2092
139,12,-44,724,-17000,105,-4,-3418
139,13,-4936,1472,-17076,111,26,758
139,14,-3168,2504,-17180,23,-166,2316
139,15,-540,1520,-16920,21,-5,1828
139,16,-1316,64,-17388,-69,-177,2764
139,17,932,-1564,-16816,92,-526,2984
139,18,300,-4656,-17216,116,-61,-2449
139,19,-3280,-2092,-17320,81,-43,1723
140,0,288,624,-16712,867,-187,-282
140,1,-288,2940,-16748,187,-81,2173
140,2,-576,1212,-16816,-31,-325,2168
140,3,124,-1484,-16992,-151,70,1007
140,4,1212,-2920,-17156,-5,-169,766
140,5,5524,-1456,-16964,97,142,1337
140,6,1720,1196,-16540,-297,71,-536
140,7,-4740,696,-16292,168,165,-566
140,8,-2528,-1996,-16768,-130,-43,307
140,9,1520,-3412,-17076,59,234,-934
140,10,-216,-1156,-17032,261,-143,-630
140,11,-1780,644,-17312,112,-153,-2044
140,12,-2316,3208,-17300,125,-16,-964
140,13,-6056,2332,-16376,350,9,-2289
140,14,-2688,-1168,-16696,-3,-56,-907
140,15,5740,-748,-16164,198,80,3258
140,16,3596,988,-18160,1707,-1489,-253
140,17,5384,1112,-16080,-142,-45,-544
140,18,-148,48,-16908,-197,79,-1930
140,19,-5188,-700,-17096,73,-177,-376
141,0,-268,976,-16800,132,-39,321
141,1,-876,460,-17240,235,15,-674
141,2,1452,2408,-17508,73,-93,-1230
141,3,208,2968,-17088,237,-225,-1229
141,4,-136,2136,-16812,-191,66,1214
141,5,-404,968,-16780,210,-529,966
141,6,216,-908,-17064,306,-31,2602
141,7,-1688,-560,-17352,116,218,1935
141,8,-28,-3592,-17244,-63,-163,1958
141,9,-692,-2856,-17028,-99,151,-10
141,10,-2232,-152,-17328,180,-194,337
141,11,-1188,856,-16992,70,-346,2784
141,12,1220,-884,-17304,152,268,722
141,13,6672,1016,-17044,277,-114,1387
141,14,4980,464,-17144,-69,-91,-109
141,15,2208,-732,-16728,-41,-257,-3120
141,16,1944,-1388,-16512,210,87,-1595
141,17,-656,-4032,-17416,63,203,-2413
141,18,256,-2772,-17028,350,28,2565
141,19,1492,-3732,-17348,176,286,292
142,0,364,324,-16900,132,-42,157
142,1,-12,-292,-16984,-134,192,-152
142,2,-3796,-76,-17004,58,206,232
142,3,-2416,320,-17112,393,-6,-1409
142,4,-816,-336,-17204,123,-123,-931
142,5,508,884,-16448,365,168,-105
142,6,6564,-596,-16972,21,23,1855
142,7,4032,-24,-16888,38,-24,2589
142,8,2548,-892,-17536,421,485,-315
142,9,1592,-1796,-17336,161,-22,-3138
142,10,-3676,-48,-16732,130,-178,-1680
142,11,20,-468,-17080,-25,122,69
142,12,-3348,-352,-17512,316,-182,-927
142,13,-2868,12,-17064,470,-137,-1947
142,14,0,288,-17032,285,-344,3433
142,15,4996,384,-17052,307,-297,1951
142,16,1744,3480,-16940,227,-130,-318
142,17,712,1532,-16792,-69,-333,390
142,18,-132,-868,-17340,338,-8,3228
142,19,20,-4916,-17056,51,-164,1179
143,0,700,644,-16780,124,-233,-116
143,1,1376,2908,-16680,-14,69,-384
143,2,840,892,-16764,442,-507,-945
143,3,-1320,-1256,-17364,187,-96,-1061
143,4,-2148,-4392,-16912,26,-94,2095
143,5,-660,-3812,-16992,-5,-137,66
143,6,-1664,-2284,-17020,-109,-215,289
143,7,-1364,-2236,-16400,-212,414,-12
143,8,1048,-220,-16184,408,-71,161
143,9,2532,1640,-16680,121,-107,-2781
143,10,2056,3336,-16908,288,-151,-1850
143,11,4604,756,-16904,30,-34,-1344
143,12,1300,-540,-17312,-122,459,-4999
143,13,-5148,176,-16360,-109,-100,-2367
143,14,-5040,1136,-16836,-88,20,-4050
143,15,-3064,1956,-17372,152,-493,4545
143,16,-980,824,-17132,-366,216,5624
143,17,2236,-2696,-18028,-237,-178,6506
143,18,7052,-5856,-16836,153,-130,2633
143,19,3740,-5024,-16732,279,-294,-2401
144,0,-1036,72,-17296,94,6,350
144,1,-2984,-268,-17836,240,-313,-2340
144,2,-2540,-872,-16216,214,264,3256
144,3,2840,12,-18000,-15,-306,2361
144,4,7508,-1140,-16916,151,-204,2046
144,5,2928,-2540,-16768,326,2,469
144,6,1700,-2588,-16796,405,-225,-1323
144,7,2204,-1040,-16684,251,167,-189
144,8,-1084,824,-18160,348,71,-2952
144,9,-6112,3812,-17128,-10,45,-4394
144,10,-1956,1204,-17016,313,-32,-5202
144,11,-3940,2520,-16924,40,-441,1731
144,12,-1464,632,-17176,258,-55,2752
144,13,1244,-1472,-17272,-156,374,2826
144,14,3992,-1964,-16200,-31,-67,3341
144,15,4908,-1644,-16896,-109,-59,2915
144,16,1764,-300,-16556,242,169,-3383
144,17,-2672,736,-17780,147,-611,-1940
144,18,-6476,24,-17176,210,-53,-262
144,19,-2588,-2052,-17056,115,6,-1427
145,0,124,-316,-16884,170,-75,-67
145,1,624,256,-16980,129,-48,242
145,2,-88,-800,-17012,154,-83,-53
145,3,304,-1768,-16792,-128,5,3422
145,4,644,-2392,-16792,222,-216,59
145,5,260,-2516,-16180,124,-87,-1329
145,6,-764,52,-16608,103,54,-1739
145,7,292,1164,-17168,77,-351,-1798
145,8,888,3636,-17240,86,-156,-1059
145,9,-72,2552,-17096,131,-39,-379
145,10,-6216,1416,-16640,195,-339,2524
145,11,-1484,-152,-16996,29,18,6367
145,12,3412,-1488,-16896,-8,108,3931
145,13,7880,-1860,-16776,15,49,-346
145,14,4428,-860,-16928,-27,-36,-377
145,15,1952,-604,-17124,149,367,-5576
145,16,-1428,-772,-17408,222,-513,-5888
145,17,-5116,1220,-16964,14,-51,-1647
145,18,-908,1340,-16992,75,-124,33
145,19,-292,2664,-17080,-27,-171,803
146,0,192,-260,-16936,118,-48,-63
146,1,836,164,-16740,110,168,-331
146,2,-3072,-672,-16616,-37,-118,-988
146,3,-2324,-408,-17588,134,-287,1597
146,4,212,-664,-17868,331,195,1309
146,5,5520,-832,-16456,277,-179,-838
146,6,2628,-2700,-17384,229,-280,9
146,7,-128,-1812,-17516,175,336,-919
146,8,296,-208,-16728,-31,256,-1167
146,9,-488,2556,-17128,278,-15,-2940
146,10,-512,4892,-17068,45,0,-458
146,11,-168,2596,-16832,-3,49,1209
146,12,8,1328,-17404,196,-24,2281
146,13,-460,-628,-16888,-117,-31,1816
146,14,1576,-3108,-17024,168,-96,2645
146,15,2596,-1532,-17024,-94,55,-334
146,16,2004,40,-17268,-159,30,-3157
146,17,616,-604,-17504,205,218,-1554
146,18,-3372,-1004,-16884,389,35,-2673
146,19,-2948,-1684,-17024,127,-122,168
147,0,324,-2872,-16948,300,-342,-754
147,1,180,-1264,-17460,430,-240,-1760
147,2,-712,256,-15732,197,-79,-2303
147,3,1168,2104,-17096,182,198,-2802
147,4,28,3760,-16780,350,-103,-705
147,5,3604,2408,-16772,427,-211,542
147,6,-4,80,-16764,-31,-18,23
147,7,-2628,-1244,-17044,35,-162,-363
147,8,-1632,-1836,-17040,85,-216,-1556
147,9,-4360,-2288,-17204,-10,97,565
147,10,-6564,-708,-16360,471,-163,6873
147,11,5024,-892,-17808,1120,-102,1855
147,12,8592,644,-16696,319,-326,1134
147,13,4004,2176,-17016,102,-175,-51
147,14,164,1452,-17288,-62,54,-2795
147,15,-2564,-692,-16308,21,-111,646
147,16,-2680,-2652,-16728,270,-270,731
147,17,56,-424,-17032,-293,242,84
147,18,200,312,-16944,0,-78,-546
147,19,120,-148,-17080,329,-86,-111
148,0,732,3716,-17488,890,-515,-3668
148,1,76,-556,-16988,127,-93,-178
148,2,-228,-1640,-16880,245,-69,-218
148,3,248,-636,-17116,175,-158,-571
148,4,152,-728,-17252,123,180,-942
148,5,308,64,-17332,218,-193,-1355
148,6,-68,16,-17408,604,-345,-1371
148,7,92,1396,-17040,27,62,-1213
148,8,2780,3380,-16788,246,-16,-67
148,9,368,2132,-17248,-53,155,701
148,10,-96,548,-16676,-12,104,1079
148,11,8,-372,-17360,219,-244,893
148,12,-600,-1560,-17476,121,-41,265
148,13,1224,-2972,-16896,106,-191,468
148,14,1744,-2708,-17112,47,-35,1165
148,15,2712,-2028,-17556,31,46,-3231
148,16,-120,1144,-17124,393,369,-2800
148,17,-4536,772,-17084,211,80,-780
148,18,-1444,-924,-16948,122,44,-1173
148,19,-5760,-1452,-17320,181,331,3651
149,0,-676,1988,-17008,111,-39,546
149,1,-724,2532,-16992,349,-114,462
149,2,-164,2560,-16856,-241,79,2085
149,3,-1240,604,-16472,553,-190,4029
149,4,544,-4860,-17440,-70,259,4272
149,5,1788,-3928,-17048,125,-228,1399
149,6,5332,-2760,-17072,283,-185,-1468
149,7,692,-368,-17268,157,180,-730
149,8,-8308,2036,-17220,24,-55,-236
149,9,-640,-284,-17036,197,457,-299
149,10,-6828,-816,-17964,-58,-500,1534
149,11,-3612,-1484,-15424,-475,-373,5979
149,12,6000,-1060,-17768,183,338,2672
149,13,5972,-1100,-16708,-73,-353,-1508
149,14,3228,-1388,-17172,208,-117,-3375
149,15,1360,-1504,-16348,457,-204,-3138
149,16,-724,888,-16616,225,168,-5188
149,17,-3848,2560,-17312,92,-119,-1007
149,18,172,-192,-16964,356,-113,-119
149,19,152,-700,-17056,38,-98,-476
150,0,96,-360,-16976,21,-10,-66
150,1,156,-256,-17008,47,-47,-53
150,2,36,-340,-17012,-202,135,-58
150,3,4,-2880,-16864,-119,7,-156
150,4,-404,-1904,-16988,259,-183,-154
150,5,620,1160,-17656,215,-69,-2423
150,6,-28,2924,-16788,-121,103,-1446
150,7,244,-140,-16980,625,-351,-152
150,8,52,-1144,-17040,111,-65,-567
150,9,88,-292,-16992,63,-39,-75
150,10,-224,-1916,-16780,51,-45,1049
150,11,16,-1640,-17040,142,-105,-238
150,12,564,-1912,-16872,137,37,-1345
150,13,400,-1028,-16600,198,158,-1786
150,14,-424,-712,-17336,14,-81,-1073
150,15,-192,356,-17492,155,-266,-2271
150,16,28,-380,-15916,48,-228,-913
150,17,-192,1800,-17024,58,-157,423
150,18,468,536,-16820,172,-105,63
150,19,268,-28,-16940,165,-78,-181
151,0,36,-252,-17024,191,-100,-56
151,1,-36,944,-17088,127,-51,-1095
151,2,-260,1840,-17280,85,13,-1066
151,3,344,1732,-16848,70,161,227
151,4,-576,-64,-16796,-140,-346,1205
151,5,1472,-196,-16264,304,-125,1835
151,6,-244,-3436,-17028,62,64,1089
151,7,268,-2336,-17088,35,-118,184
151,8,192,-324,-17012,94,-90,-82
151,9,4,1016,-17104,77,-117,-256
151,10,176,516,-17196,22,-206,729
151,11,32,1080,-16720,253,-384,759
151,12,236,-72,-16656,120,-16,570
151,13,-392,108,-16700,-325,4,1680
151,14,-344,-2448,-16800,199,-103,1452
151,15,372,-2244,-16980,42,7,249
151,16,100,-304,-16980,-35,-20,-18
151,17,60,-260,-17012,106,-42,-86
151,18,124,-56,-17036,7,0,1354
151,19,120,-356,-16916,123,-95,-59
152,0,-92,-668,-16984,68,-32,-853
152,1,-320,-516,-17028,157,-72,-1535
152,2,-2244,-396,-16904,13,-75,-1653
152,3,-2204,180,-17216,73,69,892
152,4,1180,-952,-16644,-267,54,-1405
152,5,3428,308,-16888,-59,153,1966
152,6,2492,244,-16948,30,-66,-301
152,7,68,-276,-16960,123,-33,-64
152,8,152,-216,-16948,44,-34,-22
152,9,-1516,-128,-16964,148,14,-1511
152,10,-1040,76,-16788,191,-64,-973
152,11,-464,-100,-17556,-147,-3,-4826
152,12,-120,52,-17164,135,297,2075
152,13,3196,-356,-17056,52,-126,2454
152,14,2192,-604,-16852,143,-76,-445
152,15,184,-352,-16912,59,-45,-41
152,16,96,-356,-16996,90,-57,-75
152,17,72,-328,-16936,154,-67,-100
152,18,96,-320,-16904,100,-43,-40
152,19,-12,-224,-16976,92,-69,-76
153,0,96,-276,-16988,143,-45,-23
153,1,116,-228,-16936,98,-79,-72
153,2,96,-296,-16988,137,-71,-73
153,3,168,-312,-17020,142,-162,-110
153,4,2888,440,-19060,124,-153,1143
153,5,1768,-940,-16976,62,-190,-1870
153,6,1780,-720,-16316,198,31,-2606
153,7,-2244,-396,-17612,-338,-420,-3312
153,8,-3328,-140,-16732,124,127,-126
153,9,192,-316,-16896,142,-126,-135
153,10,12,-336,-17068,97,-78,-64
153,11,52,-320,-16948,163,-125,-37
153,12,1860,-580,-16808,137,-266,1046
153,13,496,60,-17468,42,7,267
153,14,-724,-548,-17172,262,352,102
153,15,-748,-728,-17380,23,-103,118
153,16,-1088,-324,-16504,111,-34,-199
153,17,-920,-224,-17260,28,71,-151
153,18,-160,-364,-16912,107,-62,-494
153,19,72,-288,-16892,86,-56,-41
154,0,-52,-468,-17060,-268,-93,473
154,1,316,-1300,-17112,299,-22,-56
154,2,-20,-456,-16584,221,-76,596
154,3,108,-752,-16716,101,28,302
154,4,148,-40,-17228,84,-133,-160
154,5,-16,-1112,-16268,290,71,122
154,6,-380,-40,-16836,26,-67,-1011
154,7,328,884,-17528,164,-173,-4
154,8,268,944,-16720,17,-85,-1040
154,9,224,-220,-17044,316,-111,-43
154,10,100,-284,-16996,94,-36,-61
154,11,68,-88,-17008,208,-84,-1185
154,12,-492,1416,-17244,161,-3,1089
154,13,-1164,1520,-17084,-48,7,1518
154,14,-40,-400,-17460,42,77,543
154,15,-708,52,-17092,-59,-273,2602
154,16,268,-640,-17008,203,101,1051
154,17,-116,-1024,-16984,17,-72,3046
154,18,1916,-2376,-16820,165,31,1072
154,19,1720,-2692,-17008,106,-77,-756
155,0,-440,1412,-16880,81,-94,315
155,1,-316,1036,-17216,200,-177,653
155,2,48,288,-16780,26,-302,1725
155,3,-300,300,-17048,203,-124,1589
155,4,-156,-1216,-17264,279,-377,1775
155,5,1112,-1460,-16740,379,-46,3224
155,6,496,-2376,-17488,109,97,519
155,7,276,-1604,-16944,152,-48,312
155,8,-176,-1352,-17032,96,-57,-74
155,9,96,-172,-16988,-56,29,928
155,10,144,-244,-16980,14,1,-105
155,11,-2732,-184,-17012,284,-60,-1494
155,12,-2508,-280,-16872,20,-178,883
155,13,-1584,172,-17400,177,-105,971
155,14,108,-652,-17064,-114,-5,1192
155,15,3736,-880,-17460,76,-210,393
155,16,3564,-832,-16736,-74,22,-1716
155,17,128,-300,-17080,172,-187,-80
155,18,104,-220,-17024,98,-63,-42
155,19,160,-264,-16964,25,-82,-71
156,0,36,-224,-17032,-287,-21,265
156,1,224,-2484,-16712,65,-47,-24
156,2,340,-3112,-16728,210,-289,-144
156,3,1380,-2364,-16860,86,-250,-884
156,4,856,-356,-17604,-12,176,-111
156,5,-564,1152,-17708,90,16,-1602
156,6,-720,1232,-16628,-121,-145,-1120
156,7,-672,1348,-16124,248,27,-1964
156,8,-520,1140,-17128,86,-157,-848
156,9,4,-228,-16964,298,-140,-120
156,10,136,-344,-16960,201,-60,-784
156,11,-176,844,-16972,78,-41,-232
156,12,-332,3172,-16616,82,56,-252
156,13,-740,1604,-17076,-53,52,255
156,14,84,-108,-16964,464,178,306
156,15,-72,-832,-16456,439,-673,398
156,16,292,-1784,-17192,73,-24,2593
156,17,268,-1512,-17128,-85,31,-162
156,18,-180,-1856,-16888,165,-64,755
156,19,276,-1332,-16940,98,-133,27
157,0,1208,-1864,-17412,244,-63,-462
157,1,520,-1956,-17144,304,161,-596
157,2,172,-1664,-15884,57,-263,-1267
157,3,-136,608,-17156,-44,143,-1251
157,4,-100,1596,-17912,320,-86,-494
157,5,-436,-1288,-16188,262,-233,-1012
157,6,176,1328,-17172,-15,-179,-112
157,7,276,-168,-16824,62,26,-593
157,8,-40,260,-17104,61,7,-808
157,9,-16,-928,-17052,94,-55,-1
157,10,264,-172,-16940,26,-76,-273
157,11,-4,-268,-16948,117,-65,-158
157,12,132,-80,-16956,40,-81,-64
157,13,108,-268,-17008,127,-128,-50
157,14,24,-124,-17104,291,-127,-216
157,15,56,16,-16944,154,-109,-583
157,16,-32,-692,-16860,116,-74,-22
157,17,236,-168,-16936,73,-45,-50
157,18,120,-584,-17020,109,-86,-340
157,19,188,-324,-17056,139,-84,-41
158,0,184,-1044,-17028,33,-57,593
158,1,-8,-2252,-17088,-12,11,-151
158,2,328,-1092,-17016,23,-20,-605
158,3,-816,-744,-16460,187,-174,-1213
158,4,-128,-160,-17980,-97,-121,-690
158,5,-40,-600,-17048,257,-94,-1275
158,6,116,-732,-16832,337,-117,-1296
158,7,-112,360,-16704,311,-105,-1709
158,8,-452,-340,-16332,-29,-167,-1877
158,9,116,408,-16724,108,-153,-1362
158,10,364,-404,-16936,-6,-55,-748
158,11,-72,160,-17016,83,-29,-668
158,12,288,308,-16988,121,-62,-30
158,13,104,152,-16916,210,-150,-1962
158,14,-32,932,-16952,117,-107,-28
158,15,24,-408,-17008,92,-83,215
158,16,28,712,-17080,183,-47,-124
158,17,-100,4,-17252,109,-223,1140
158,18,432,32,-17012,77,48,1653
158,19,-212,652,-16688,158,16,1150
159,0,-180,144,-17008,157,-38,-1092
159,1,-196,596,-16980,104,-138,-912
159,2,968,256,-16996,297,-141,-4617
159,3,32,156,-17068,30,-67,-74
159,4,-304,-332,-17280,117,1,334
159,5,-180,-780,-17064,157,-88,1534
159,6,40,-664,-16936,-53,-109,1312
159,7,-180,-252,-16940,-128,-69,1442
159,8,44,28,-17024,237,-48,1154
159,9,476,-648,-16640,-142,-31,890
159,10,-20,-1220,-17636,-57,96,1419
159,11,284,-440,-16948,203,-37,989
159,12,324,-1336,-17140,-50,15,568
159,13,-180,-784,-17156,189,-91,488
159,14,172,-2240,-17340,146,17,699
159,15,-288,-948,-17076,100,-56,135
159,16,-256,368,-16920,75,-157,-259
159,17,96,-264,-16952,61,-36,-285
159,18,116,-432,-17016,77,-37,-64
159,19,132,-1380,-16988,25,-67,1775
160,0,28,368,-17132,88,-95,-1535
160,1,-104,52,-17024,236,36,-1194
160,2,688,408,-17236,100,-184,-905
160,3,216,136,-17032,135,-48,-763
160,4,192,992,-17008,112,-117,-199
160,5,140,48,-17232,168,-27,144
160,6,1140,492,-16888,174,44,208
160,7,240,-416,-16996,40,0,-42
160,8,-192,-432,-17120,190,135,70
160,9,412,-708,-16868,35,4,517
160,10,624,-204,-16832,73,-138,-323
160,11,-796,-420,-17012,70,-91,374
160,12,-176,-388,-17112,96,114,-13
160,13,-1504,-344,-16948,143,-85,-765
160,14,180,468,-16968,155,-38,-607
160,15,-108,1536,-16848,59,-65,128
160,16,-304,952,-17236,126,-138,1117
160,17,52,144,-17308,-51,116,2043
160,18,368,-1708,-16652,-197,90,1946
160,19,-852,-2600,-17272,102,225,11
161,0,204,-808,-16960,87,-46,-448
161,1,4,-148,-16700,135,-144,-716
161,2,-88,336,-17244,68,-95,-1005
161,3,300,-1016,-16936,215,-119,-931
161,4,-712,1640,-17080,70,-3,-867
161,5,172,-144,-16952,144,-10,-148
161,6,-1004,4,-16984,42,-41,-1201
161,7,-2192,200,-16944,252,49,-95
161,8,-568,-340,-16844,-134,-132,2085
161,9,520,-464,-16760,161,180,1351
161,10,2392,-944,-17000,31,29,-436
161,11,368,-1324,-17064,40,-74,844
161,12,356,-960,-17124,120,-198,-597
161,13,468,-536,-16988,124,-83,-1560
161,14,288,-576,-16792,187,104,-945
161,15,48,336,-17456,236,33,-1575
161,16,124,996,-17168,38,-71,-1418
161,17,1208,668,-16800,184,-362,-1045
161,18,2232,-448,-16336,120,217,-1121
161,19,248,-180,-17152,130,83,-1251
162,0,336,-1084,-16928,-41,94,900
162,1,80,-476,-16808,-53,60,690
162,2,-180,-740,-16744,-19,-121,701
162,3,-740,-2568,-17156,151,-38,665
162,4,360,-896,-16940,111,-36,1818
162,5,1772,-128,-17296,-86,-69,-180
162,6,512,264,-16816,201,-69,-1016
162,7,-1204,-44,-17308,-59,-68,112
162,8,-1208,-320,-16852,154,-115,-450
162,9,-164,-796,-17096,24,69,791
162,10,1540,-2252,-17092,102,-180,-574
162,11,-84,-960,-16788,173,118,-524
162,12,140,-1300,-16832,274,230,-2325
162,13,-1180,1652,-17016,99,-86,-1278
162,14,-892,404,-16872,188,-55,-1421
162,15,-1460,-248,-17116,123,-183,-74
162,16,-1484,-436,-17100,61,88,-69
162,17,-508,-1112,-16392,134,5,1818
162,18,180,-936,-17344,-81,205,-124
162,19,1136,-572,-17148,73,-313,1779
163,0,412,-1312,-17180,12,-77,-453
163,1,-12,-1440,-17008,75,-77,61
163,2,2112,-308,-17076,11,45,890
163,3,676,-196,-16976,-171,-467,-1163
163,4,440,-276,-16732,199,-98,-457
163,5,-652,-100,-16500,-353,-287,-1304
163,6,-3800,-968,-17388,163,-74,-593
163,7,64,-288,-17048,-107,14,-48
163,8,-2052,-624,-16948,161,-119,-1636
163,9,-1256,-352,-16896,156,-120,215
163,10,-612,116,-16548,182,-47,958
163,11,360,-340,-16560,243,-134,1026
163,12,2556,-784,-16576,158,-74,139
163,13,1132,-2876,-16816,25,-207,949
163,14,420,-1888,-16848,35,212,-1648
163,15,-436,-1128,-17216,208,-294,-1862
163,16,-916,-1352,-15268,31,61,-2294
163,17,-544,1692,-16180,260,-44,-1381
163,18,928,1956,-16876,49,-67,-438
163,19,1304,748,-16912,151,-72,459
164,0,-604,1520,-17124,254,-124,126
164,1,-28,300,-16684,27,-67,-601
164,2,-256,620,-17120,73,-67,-799
164,3,-352,452,-16676,193,-2,-541
164,4,-672,-216,-17104,125,-112,116
164,5,-968,-352,-16928,172,197,1135
164,6,-688,-188,-16784,165,-133,1451
164,7,-708,-748,-16944,-74,-41,1407
164,8,2036,108,-16920,148,-223,-178
164,9,72,-372,-17020,191,-226,-323
164,10,-336,844,-17024,101,-68,425
164,11,60,1004,-17244,161,-117,887
164,12,1080,212,-16792,65,-8,1448
164,13,76,-888,-17176,14,-23,1273
164,14,2384,-2004,-16656,262,-327,1065
164,15,592,-1520,-16772,-55,79,303
164,16,928,-556,-17112,101,132,-234
164,17,136,496,-17112,187,-22,-1170
164,18,-620,-200,-17048,209,97,-2594
164,19,-1980,472,-16700,92,-247,-1549
165,0,0,-360,-17008,177,-243,-53
165,1,-4,-1696,-17000,14,-112,1964
165,2,-252,-1648,-16772,276,-43,1516
165,3,-12,-1944,-16884,-85,-190,2304
165,4,280,-448,-16508,273,-131,1885
165,5,196,-404,-16852,120,-360,513
165,6,200,-1268,-18064,94,-100,942
165,7,-456,-332,-16648,327,-135,2299
165,8,164,-644,-17372,135,-190,3096
165,9,-272,568,-16896,-56,-72,3398
165,10,156,3012,-17492,87,-327,2220
165,11,1648,-108,-16944,570,-484,-756
165,12,1796,164,-16748,180,-328,-1635
165,13,1248,-1128,-16972,90,-229,-286
165,14,-312,-728,-16468,137,-178,768
165,15,-1680,368,-16788,15,-122,1454
165,16,-464,2008,-17528,205,45,3010
165,17,340,3316,-17100,-145,-179,-4161
165,18,792,1044,-17108,450,-65,-2966
165,19,-248,-952,-17772,37,-126,-607
166,0,-148,-980,-17616,40,49,597
166,1,-800,-1352,-16656,37,40,1316
166,2,996,-772,-17680,247,-88,1435
166,3,1808,184,-17360,78,-143,2382
166,4,2068,936,-17300,78,105,293
166,5,2428,-184,-17036,93,-134,1477
166,6,248,-96,-16644,-29,-301,1082
166,7,-1748,-260,-17476,294,-122,1837
166,8,-1860,-984,-17892,217,-154,1399
166,9,-2532,68,-17360,46,-159,2209
166,10,-2352,1384,-16836,338,-282,-1326
166,11,-376,1352,-17100,-51,11,-631
166,12,1164,1536,-16864,499,-397,-3430
166,13,2456,1168,-16216,179,-387,-2820
166,14,3580,568,-16908,262,-195,-2132
166,15,1320,1736,-16908,174,-145,-2507
166,16,1080,-316,-15756,469,-377,-1040
166,17,-644,-400,-17168,-165,-437,-450
166,18,-2768,-1600,-16796,591,-8,390
166,19,-2840,1040,-17200,82,38,2212
167,0,-300,-4352,-16340,-139,-160,-1654
167,1,564,-5588,-16752,150,145,3242
167,2,772,-1696,-15432,-188,21,5752
167,3,1500,1308,-16664,-95,-340,4230
167,4,-380,6828,-17392,-405,-271,-1218
167,5,288,-264,-16960,617,-354,-484
167,6,1688,-400,-17004,143,-118,-2561
167,7,1288,-596,-17848,-248,-134,1610
167,8,-1028,-272,-16476,165,-3,2718
167,9,-3332,628,-16956,1,-93,2759
167,10,-892,4164,-16924,42,33,2369
167,11,52,6388,-16372,18,-266,-4065
167,12,728,-1200,-16768,-80,-334,-4428
167,13,1836,-11720,-17732,417,-239,-2944
167,14,1824,-10760,-16904,-642,195,637
167,15,-756,-2936,-15892,402,382,2330
167,16,436,456,-16308,129,-279,4915
167,17,292,6832,-18060,284,-204,3585
167,18,-4,1040,-16952,332,-323,-1032
167,19,-2564,-676,-17428,193,-171,528
168,0,1368,2328,-16968,55,4,-47
168,1,1108,3376,-17288,4,-100,-2836
168,2,724,2464,-17380,338,302,-5055
168,3,452,1444,-16212,-281,-74,-671
168,4,-968,-6948,-17628,471,-498,-2382
168,5,-348,-6716,-17264,158,-58,1139
168,6,-396,848,-16908,507,-148,-680
168,7,-2604,-540,-17312,393,26,-803
168,8,-336,-228,-16764,33,-18,209
168,9,3572,-444,-16772,66,-381,-653
168,10,1920,-1260,-16924,-741,-884,-2968
168,11,2952,-3956,-17264,-140,73,1620
168,12,768,844,-16364,87,492,3434
168,13,-1056,-864,-17588,624,527,3245
168,14,-1796,1964,-16848,-68,61,5596
168,15,-3624,5372,-16792,148,-227,2581
168,16,-3696,-964,-16364,161,-247,1561
168,17,-1968,-612,-17080,177,-213,-1805
168,18,-232,-696,-16076,315,499,-2772
168,19,3644,1472,-17040,106,253,-650
169,0,-48,-160,-16900,14,373,1507
169,1,-424,384,-17404,161,-90,240
169,2,-1520,-828,-16536,-77,22,-298
169,3,-36,-36,-16312,131,106,-1193
169,4,1800,-1368,-17168,-45,-365,-2243
169,5,-508,-4972,-16164,182,-612,-68
169,6,2068,-3736,-17620,-214,-9,1695
169,7,2844,-100,-16480,616,101,4319
169,8,2132,4992,-17380,198,75,5424
169,9,-692,4860,-17128,156,2,2098
169,10,-1612,2580,-17408,65,15,1181
169,11,-2496,460,-17320,-334,-42,-3219
169,12,-2984,-2092,-17168,499,-257,-4344
169,13,-2368,-2896,-16168,160,-372,-4887
169,14,1424,-3332,-17812,-109,8,-2878
169,15,2644,-2360,-16980,179,-230,279
169,16,2628,-1056,-16568,-52,-306,1262
169,17,2056,2016,-17668,234,-526,4509
169,18,2600,1652,-16532,206,-24,3631
